"centralCoh","peripheralCoh","direction","order","block.thisRepN","block.thisTrialN","block.thisN","block.thisIndex","etRecord.started","etRecord.stopped","text.started","text.stopped","dots.started","roi.started","text_4.started","dots.stopped","roi.stopped","text_4.stopped","outframe1","roi.numLooks","roi.timesOn","roi.timesOff","fix2.started","dots_2.started","roi_2.started","text_5.started","outframe2","roi_2.numLooks","roi_2.timesOn","roi_2.timesOff","key_resp.started","text_2.started","key_resp.keys","key_resp.rt","resp_dir_TorF","key_resp_2.started","text_3.started","key_resp_2.keys","key_resp_2.rt","resp_center_is_more_coherent","fix2.stopped","dots_2.stopped","roi_2.stopped","text_5.stopped","etRecord_2.started","etRecord_2.stopped","participantNo","blockNo","date","expName","psychopyVersion","frameRate","source_file","text_6.started","text_6.stopped","speed"
0.8,0.2,"down","periphFirst",0,0,0,41,0.00608300000004647,0.00608300000004647,51.313624,52.8156645,52.8156645,52.8156645,52.8156645,53.1159088,53.1159088,53.1159088,15,3,"[0.0010841999999797736, 0.03329400000001215, 0.2834649999999783]","[0.01649520000000848, 0.049833799999987605, 0.3001107000000047]",53.1159088,53.4160896,53.4160896,53.4160896,1,2,"[0.0011026000000242675, 0.13420020000000932]","[0.11670720000000756, 0.2838623000000098]",53.7167616,53.7167616,"up",0.517914300000001,0,54.2670809,54.2670809,"right",1.98357230000002,1,NA,NA,NA,NA,NA,NA,1,1,"2025-09-29_14h39.25.465","paired","2022.2.4",59.9442398680697,"paired_1_1_10.csv",NA,NA,6
0.2,0.9,"up","periphFirst",0,1,1,14,0.000362999999993008,0.000362999999993008,56.269071,57.7706333,57.7706333,57.7706333,57.7706333,58.070816,58.070816,58.070816,0,1,"[0.0007823000000257707]","[0.30007530000000315]",58.070816,58.371148,58.371148,58.371148,0,1,"[0.0007620000000088112]","[0.2836855999999557]",58.6715312,58.6715312,"up",0.778560800000008,1,59.4723499,59.4723499,"left",0.665603199999993,0,58.371148,NA,NA,NA,NA,NA,1,1,"2025-09-29_14h39.25.465","paired","2022.2.4",59.9442398680697,"paired_1_1_10.csv",NA,NA,6
0.2,0.5,"up","periphFirst",0,2,2,8,0.000221699999997327,0.000221699999997327,60.1560575,61.6576082,61.6576082,61.6576082,61.6576082,NA,NA,NA,0,1,"[0.000766800000008061]","[0.2838051000000519]",61.9581841,62.2584208,62.2584208,62.2584208,5,4,"[0.0009034999999926185, 0.06717709999998078, 0.13381270000002132, 0.2840524000000073]","[0.05019989999999552, 0.10058750000001737, 0.2506521000000248, 0.2840575999999828]",62.5588791,62.5588791,"down",0.659135099999986,0,63.2428595,63.2428595,"left",1.40744630000003,0,NA,NA,NA,NA,NA,NA,1,1,"2025-09-29_14h39.25.465","paired","2022.2.4",59.9442398680697,"paired_1_1_10.csv",NA,NA,6
0.2,0.8,"down","periphFirst",0,3,3,13,0.000326900000004571,0.000326900000004571,64.6776477,66.1790749,66.1790749,66.1790749,66.1790749,66.4793685,66.4793685,66.4793685,2,2,"[0.016526600000020153, 0.26677469999998493]","[0.24973340000002509, 0.3001355000000103]",66.4793685,66.7796872,66.7796872,66.7796872,1,2,"[0.0008123000000068714, 0.26672990000002983]","[0.2503318000000263, 0.2835264999999936]",67.08002,67.08002,"up",0.786592200000001,0,67.8975466,67.8975466,"right",0.985033299999969,1,66.7796872,NA,NA,NA,NA,NA,1,1,"2025-09-29_14h39.25.465","paired","2022.2.4",59.9442398680697,"paired_1_1_10.csv",NA,NA,6
0.5,0.5,"up","centerFirst",0,4,4,26,0.000330799999971987,0.000330799999971987,68.9150664,70.4170099,70.4170099,70.4170099,70.4170099,70.7172356,70.7172356,70.7172356,3,4,"[0.0026561999999898944, 0.09996380000001182, 0.13333440000002383, 0.26544450000000097]","[0.08239770000000135, 0.11570299999999634, 0.23177689999999984, 0.29897679999999127]",70.7172356,71.01721,71.01721,71.01721,2,2,"[0.0004466999999976906, 0.1338931999999886]","[0.10024549999997134, 0.3007627999999727]",71.3176341,71.3176341,"up",0.885595600000016,1,72.2354422,72.2354422,"left",0.710813699999989,1,71.01721,71.3176341,71.3176341,71.3176341,NA,NA,1,1,"2025-09-29_14h39.25.465","paired","2022.2.4",59.9442398680697,"paired_1_1_10.csv",NA,NA,6
0.8,0.5,"up","periphFirst",0,5,5,44,0.000683499999979631,0.000683499999979631,72.9690425,74.4705931,74.4705931,74.4705931,74.4705931,74.7708786,74.7708786,74.7708786,2,2,"[0.0007623000000194224, 0.06656860000003917]","[0.03282319999999572, 0.30019280000004755]",74.7708786,75.0712713,75.0712713,75.0712713,1,1,"[0.0009222999999565218]","[0.2839558000000011]",75.3716349,75.3716349,"up",1.15089939999999,1,76.5397538,76.5397538,"right",1.1027038,1,NA,NA,NA,NA,NA,NA,1,1,"2025-09-29_14h39.25.465","paired","2022.2.4",59.9442398680697,"paired_1_1_10.csv",NA,NA,6
0.8,0.5,"down","centerFirst",0,6,6,45,0.00116339999999582,0.00116339999999582,77.6740879,79.1753533,79.1753533,79.1753533,79.1753533,79.4756543,79.4756543,79.4756543,3,3,"[0.0007940999999505038, 0.20125589999997828, 0.2513305999999602]","[0.18397039999996423, 0.2347319999999513, 0.30138239999996586]",79.4756543,79.7759842,79.7759842,79.7759842,4,3,"[0.0020848000000341926, 0.15076279999999542, 0.2174388000000249]","[0.1332570000000146, 0.1840726000000359, 0.28371179999999185]",80.0763505,80.0763505,"down",0.494451999999995,1,80.5935521,80.5935521,"left",1.71309440000002,1,NA,NA,NA,NA,NA,NA,1,1,"2025-09-29_14h39.25.465","paired","2022.2.4",59.9442398680697,"paired_1_1_10.csv",NA,NA,6
0.8,0,"down","periphFirst",0,7,7,37,0.000483900000006088,0.000483900000006088,82.3284877,83.8299968,83.8299968,83.8299968,83.8299968,84.1302959,84.1302959,84.1302959,5,6,"[0.0012876999999775762, 0.06642549999997982, 0.16613630000000512, 0.19950310000001537, 0.2495804999999791, 0.2830222000000049]","[0.049619099999972605, 0.14944609999997738, 0.18254860000001827, 0.2328448000000094, 0.26628410000000713, 0.2995230999999876]",84.1302959,84.4306002,84.4306002,84.4306002,1,2,"[0.0008068000000207576, 0.1665283000000386]","[0.14954050000000052, 0.2834711000000425]",84.7309903,84.7309903,"up",1.39186179999999,0,86.1491902,86.1491902,"right",0.854060500000031,1,84.4306002,NA,NA,NA,NA,NA,1,1,"2025-09-29_14h39.25.465","paired","2022.2.4",59.9442398680697,"paired_1_1_10.csv",NA,NA,6
0.2,0.65,"up","centerFirst",0,8,8,10,0.00111120000002529,0.00111120000002529,87.033497,88.5346112,88.5346112,88.5346112,88.5346112,88.8349205,88.8349205,88.8349205,0,1,"[0.0007506000000034874]","[0.3002946999999949]",88.8349205,89.1352536,89.1352536,89.1352536,0,1,"[0.00087079999997286]","[0.28404569999997875]",89.4357086,89.4357086,"down",0.622549899999996,0,90.0864031,90.0864031,"right",0.572493600000058,0,NA,NA,NA,NA,NA,NA,1,1,"2025-09-29_14h39.25.465","paired","2022.2.4",59.9442398680697,"paired_1_1_10.csv",NA,NA,6
0.8,0.1,"up","periphFirst",0,9,9,38,0.000336000000004333,0.000336000000004333,90.6867229,92.1883985,92.1883985,92.1883985,92.1883985,92.4886811,92.4886811,92.4886811,6,3,"[0.04987310000001344, 0.09954069999997728, 0.19995679999999538]","[0.0827891000000136, 0.16628190000000131, 0.300114399999984]",92.4886811,92.7890178,92.7890178,92.7890178,10,2,"[0.002694700000006378, 0.18374990000000935]","[0.11649040000003197, 0.19999100000001135]",93.0894147,93.0894147,"down",0.649976100000032,0,93.7568937,93.7568937,"right",0.622614099999993,1,NA,NA,NA,NA,NA,NA,1,1,"2025-09-29_14h39.25.465","paired","2022.2.4",59.9442398680697,"paired_1_1_10.csv",NA,NA,6
0.8,1,"up","centerFirst",0,10,10,52,0.000693099999978131,0.000693099999978131,94.4073451,95.9086501,95.9086501,95.9086501,95.9086501,96.2089366,96.2089366,96.2089366,0,1,"[0.0009090000000355758]","[0.3001629000000321]",96.2089366,96.5093456,96.5093456,96.5093456,2,2,"[0.0009254999999939173, 0.2500865999999746]","[0.21661139999997658, 0.28330610000000434]",96.8095545,96.8095545,"down",0.440391800000015,0,97.276967,97.276967,"right",0.469813800000026,0,NA,NA,NA,NA,NA,NA,1,1,"2025-09-29_14h39.25.465","paired","2022.2.4",59.9442398680697,"paired_1_1_10.csv",NA,NA,6
0.8,0.35,"up","centerFirst",0,11,11,42,0.000336600000025555,0.000336600000025555,97.7771874,99.2788114,99.2788114,99.2788114,99.2788114,99.5789765,99.5789765,99.5789765,3,4,"[0.0007848000000194588, 0.08328710000000683, 0.2166505000000143, 0.2501942000000099]","[0.06633039999996981, 0.1996134999999981, 0.2334586999999715, 0.30020539999998164]",99.5789765,99.8795058,99.8795058,99.8795058,1,2,"[0.0027800999999954, 0.1341491000000019]","[0.11671559999996362, 0.2831607999999619]",100.1798397,100.1798397,"up",0.615465899999975,1,100.8137965,100.8137965,"right",0.84470300000001,0,NA,NA,NA,NA,NA,NA,1,1,"2025-09-29_14h39.25.465","paired","2022.2.4",59.9442398680697,"paired_1_1_10.csv",NA,NA,6
0.5,0.5,"down","periphFirst",0,12,12,27,0.000336299999958101,0.000336299999958101,101.6812218,103.1824963,103.1824963,103.1824963,103.1824963,NA,NA,NA,2,2,"[0.0005163000000152351, 0.236520999999982]","[0.202972299999999, 0.2850707000000057]",103.4829991,103.7833052,103.7833052,103.7833052,3,3,"[0.017429999999990287, 0.11741380000000845, 0.20101800000003323]","[0.10084660000001122, 0.1841534000000138, 0.28421270000001186]",104.0836085,104.0836085,"down",0.655800000000028,1,104.7677827,104.7677827,"right",0.498508199999975,1,NA,NA,NA,NA,NA,NA,1,1,"2025-09-29_14h39.25.465","paired","2022.2.4",59.9442398680697,"paired_1_1_10.csv",NA,NA,6
0.5,0.9,"down","periphFirst",0,13,13,33,0.000657799999999042,0.000657799999999042,105.2846507,106.7864406,106.7864406,106.7864406,106.7864406,107.0866001,107.0866001,107.0866001,4,1,"[0.049770200000011755]","[0.3000438999999915]",107.0866001,107.3869114,107.3869114,107.3869114,4,3,"[0.000841199999968012, 0.15012869999998202, 0.233558999999957]","[0.11674919999995836, 0.2002341999999544, 0.2832664999999679]",107.6870701,107.6870701,"up",0.812239300000016,0,108.5215572,108.5215572,"left",1.36087990000001,0,107.3869114,NA,NA,NA,NA,NA,1,1,"2025-09-29_14h39.25.465","paired","2022.2.4",59.9442398680697,"paired_1_1_10.csv",NA,NA,6
0.5,0.1,"down","periphFirst",0,14,14,21,0.00106619999996838,0.00106619999996838,109.9064964,111.4075074,111.4075074,111.4075074,111.4075074,111.7079052,111.7079052,111.7079052,19,0,"","",111.7079052,112.0080645,112.0080645,112.0080645,2,3,"[0.0009555000000318614, 0.06699690000004921, 0.2171458000000257]","[0.05000400000000127, 0.200290500000051, 0.2838972000000126]",112.3085538,112.3085538,"down",1.43122000000002,1,113.7604517,113.7604517,"right",0.442939099999961,1,NA,NA,NA,NA,NA,NA,1,1,"2025-09-29_14h39.25.465","paired","2022.2.4",59.9442398680697,"paired_1_1_10.csv",NA,NA,6
0.8,0.9,"down","centerFirst",0,15,15,51,0.00125490000004902,0.00125490000004902,114.227478,115.7286537,115.7286537,115.7286537,115.7286537,NA,NA,NA,1,2,"[0.0008272000000033586, 0.2665908000000172]","[0.24972479999996722, 0.28338189999999486]",116.0288762,116.3293892,116.3293892,116.3293892,5,5,"[0.00342200000000048, 0.05093749999997499, 0.13438579999996136, 0.18439479999995, 0.2824833999999896]","[0.03427589999995462, 0.10098729999998568, 0.16752329999997073, 0.2673432999999932, 0.2824913000000038]",116.629519,116.629519,"up",0.397907000000004,0,117.0467329,117.0467329,"right",0.555963000000048,0,NA,NA,NA,NA,NA,NA,1,1,"2025-09-29_14h39.25.465","paired","2022.2.4",59.9442398680697,"paired_1_1_10.csv",NA,NA,6
0.2,1,"down","periphFirst",0,16,16,17,0.000337799999954314,0.000337799999954314,117.6303886,119.1322353,119.1322353,119.1322353,119.1322353,119.4325045,119.4325045,119.4325045,13,3,"[0.08334840000003396, 0.18289380000004485, 0.2831028000000515]","[0.13285020000000713, 0.19894090000002507, 0.299794200000008]",119.4325045,119.7329717,119.7329717,119.7329717,7,4,"[0.06677109999998265, 0.13276500000000624, 0.1807105999999976, 0.2644367999999986]","[0.11557319999997162, 0.16408250000000635, 0.2307268999999792, 0.29760740000000396]",120.0329442,120.0329442,"down",0.7769567,1,120.8337187,120.8337187,"left",0.512837599999983,0,119.7329717,120.0329442,120.0329442,120.0329442,NA,NA,1,1,"2025-09-29_14h39.25.465","paired","2022.2.4",59.9442398680697,"paired_1_1_10.csv",NA,NA,6
0.5,0.1,"up","centerFirst",0,17,17,20,0.000207700000032673,0.000207700000032673,121.367452,122.8692113,122.8692113,122.8692113,122.8692113,123.1692709,123.1692709,123.1692709,5,4,"[0.0010305000000130349, 0.049776699999995344, 0.13326250000000073, 0.2655440999999996]","[0.016201100000046154, 0.11620830000003934, 0.2325998000000027, 0.29952180000003636]",123.1692709,123.4695884,123.4695884,123.4695884,13,4,"[0.08306329999999207, 0.18329729999999245, 0.2500925999999595, 0.28339419999997517]","[0.11631849999997712, 0.21646949999995968, 0.26631649999995943, 0.30003339999996115]",123.7700757,123.7700757,"down",0.680906799999974,0,124.470666,124.470666,"right",0.540406000000047,0,123.4695884,123.7700757,123.7700757,123.7700757,NA,NA,1,1,"2025-09-29_14h39.25.465","paired","2022.2.4",59.9442398680697,"paired_1_1_10.csv",NA,NA,6
0.5,0.8,"down","centerFirst",0,18,18,31,0.000337800000011157,0.000337800000011157,125.0379065,126.5398412,126.5398412,126.5398412,126.5398412,126.8397213,126.8397213,126.8397213,6,4,"[0.002677199999993718, 0.06647709999998597, 0.131885699999998, 0.2972088999999869]","[0.04904400000003761, 0.09889120000002549, 0.24804249999999683, 0.2972120000000018]",126.8397213,127.1400283,127.1400283,127.1400283,7,4,"[0.0007949999999823376, 0.06646719999997686, 0.1499041999999804, 0.19996070000001964]","[0.016343599999970593, 0.09966759999997521, 0.1666529999999966, 0.30008979999996654]",127.4402158,127.4402158,"down",0.554494500000004,1,128.0242556,128.0242556,"right",0.563229900000039,0,127.1400283,127.4402158,127.4402158,127.4402158,NA,NA,1,1,"2025-09-29_14h39.25.465","paired","2022.2.4",59.9442398680697,"paired_1_1_10.csv",NA,NA,6
0.2,0.2,"down","periphFirst",0,19,19,5,0.00114739999997937,0.00114739999997937,128.6084461,130.1098242,130.1098242,130.1098242,130.1098242,NA,NA,NA,5,1,"[0.06654839999998785]","[0.28475129999998217]",130.4104624,130.710367,130.710367,130.710367,3,4,"[0.0019760000000133005, 0.10018139999999676, 0.1335369999999898, 0.2499559999999974]","[0.08319519999997738, 0.11641389999999774, 0.2330372000000125, 0.2829297999999767]",131.0103174,131.0103174,"up",0.591912500000007,0,131.627865,131.627865,"left",0.92672410000003,0,NA,NA,NA,NA,NA,NA,1,1,"2025-09-29_14h39.25.465","paired","2022.2.4",59.9442398680697,"paired_1_1_10.csv",NA,NA,6
0.2,0,"up","periphFirst",0,20,20,0,0.000958200000013676,0.000958200000013676,132.5790082,134.0802744,134.0802744,134.0802744,134.0802744,134.380498,134.380498,134.380498,10,4,"[0.01653929999997672, 0.1333419000000049, 0.20000989999999774, 0.26676320000001397]","[0.08293259999999236, 0.16628659999997808, 0.21637309999999843, 0.2998782000000233]",134.380498,134.6810229,134.6810229,134.6810229,5,4,"[0.0009076000000050044, 0.08376549999996996, 0.1504287000000204, 0.20056099999999333]","[0.06679300000001831, 0.11673280000002251, 0.18348140000000512, 0.28366899999997486]",134.9814525,134.9814525,"up",1.29448879999998,1,136.2996667,136.2996667,"left",0.502640000000014,0,NA,NA,NA,NA,NA,NA,1,1,"2025-09-29_14h39.25.465","paired","2022.2.4",59.9442398680697,"paired_1_1_10.csv",NA,NA,6
0.8,0.65,"down","centerFirst",0,21,21,47,0.000328200000012657,0.000328200000012657,136.833102,138.3347027,138.3347027,138.3347027,138.3347027,138.6348604,138.6348604,138.6348604,9,4,"[0.03317469999996092, 0.11631839999995464, 0.16618009999996275, 0.28330849999997554]","[0.06605669999999009, 0.14950659999999516, 0.26652839999997013, 0.29963229999998475]",138.6348604,138.9352342,138.9352342,138.9352342,2,1,"[0.03315580000003138]","[0.28342310000005]",139.2355455,139.2355455,"up",0.447282300000012,0,139.7025864,139.7025864,"right",0.515560999999963,0,138.9352342,NA,NA,NA,NA,NA,1,1,"2025-09-29_14h39.25.465","paired","2022.2.4",59.9442398680697,"paired_1_1_10.csv",NA,NA,6
0.2,0.1,"up","periphFirst",0,22,22,2,0.000341700000035416,0.000341700000035416,140.2364777,141.737988,141.737988,141.737988,141.737988,142.0383336,142.0383336,142.0383336,19,0,"","",142.0383336,142.3385542,142.3385542,142.3385542,6,4,"[0.000946900000030837, 0.05044229999998606, 0.2005108999999834, 0.2838227999999958]","[0.01671449999997776, 0.16685289999998076, 0.2506599999999821, 0.2838269000000082]",142.6388567,142.6388567,"down",2.19542720000001,0,144.8579993,144.8579993,"left",1.6086162,0,NA,NA,NA,NA,NA,NA,1,1,"2025-09-29_14h39.25.465","paired","2022.2.4",59.9442398680697,"paired_1_1_10.csv",NA,NA,6
0.8,0,"up","centerFirst",0,23,23,36,0.000322999999980311,0.000322999999980311,146.4927092,147.994247,147.994247,147.994247,147.994247,148.2945267,148.2945267,148.2945267,9,4,"[0.0007815000000164218, 0.03330360000001065, 0.11670479999997951, 0.18342239999998355]","[0.016457500000001346, 0.10004509999998845, 0.1331003000000237, 0.2501368999999727]",148.2945267,148.5947514,148.5947514,148.5947514,18,0,"","",148.8950224,148.8950224,"up",0.755919700000021,1,149.6793921,149.6793921,"right",0.443384500000008,0,NA,NA,NA,NA,NA,NA,1,1,"2025-09-29_14h39.25.465","paired","2022.2.4",59.9442398680697,"paired_1_1_10.csv",NA,NA,6
0.2,0.8,"up","periphFirst",0,24,24,12,0.000318499999991673,0.000318499999991673,150.1464216,151.6480201,151.6480201,151.6480201,151.6480201,151.948185,151.948185,151.948185,4,3,"[0.017056199999956334, 0.18126029999996263, 0.21485629999995126]","[0.16439689999998564, 0.19789389999999685, 0.2980873999999858]",151.948185,152.248506,152.248506,152.248506,5,5,"[0.0008148000000005595, 0.11659309999998868, 0.16669840000002978, 0.21677970000001778, 0.2830071000000203]","[0.08295440000000553, 0.14976039999999102, 0.19974719999999024, 0.2662809999999922, 0.30012220000003254]",152.5488434,152.5488434,"up",0.910382199999987,1,153.483204,153.483204,"left",0.447685399999983,0,152.248506,152.5488434,152.5488434,152.5488434,NA,NA,1,1,"2025-09-29_14h39.25.465","paired","2022.2.4",59.9442398680697,"paired_1_1_10.csv",NA,NA,6
0.8,0.65,"up","centerFirst",0,25,25,46,0.00034410000000662,0.00034410000000662,153.9502257,155.4515464,155.4515464,155.4515464,155.4515464,155.7519976,155.7519976,155.7519976,2,3,"[0.0008078000000182328, 0.18335059999998293, 0.2835663999999838]","[0.16650929999997288, 0.266566800000021, 0.30028799999996636]",155.7519976,156.0523178,156.0523178,156.0523178,18,0,"","",156.3526027,156.3526027,"down",0.722839199999981,0,157.1034759,157.1034759,"left",1.30721059999999,1,NA,NA,NA,NA,NA,NA,1,1,"2025-09-29_14h39.25.465","paired","2022.2.4",59.9442398680697,"paired_1_1_10.csv",NA,NA,6
0.5,1,"down","periphFirst",0,26,26,35,0.000330899999994472,0.000330899999994472,158.4380303,159.9392739,159.9392739,159.9392739,159.9392739,NA,NA,NA,6,3,"[0.06698640000001888, 0.1681573000000185, 0.2510641000000078]","[0.1510715999999661, 0.2343710000000101, 0.28394850000000815]",160.2397941,160.5396815,160.5396815,160.5396815,8,4,"[0.0006215999999881205, 0.05044229999998606, 0.133835299999987, 0.25146369999998797]","[0.01660909999998239, 0.10016379999996161, 0.1833543999999847, 0.28424179999996113]",160.8400531,160.8400531,"down",0.762354700000031,1,161.6245446,161.6245446,"left",0.489852900000045,0,NA,NA,NA,NA,NA,NA,1,1,"2025-09-29_14h39.25.465","paired","2022.2.4",59.9442398680697,"paired_1_1_10.csv",NA,NA,6
0.8,0.8,"down","centerFirst",0,27,27,49,0.000219000000015512,0.000219000000015512,162.1415714,163.6436451,163.6436451,163.6436451,163.6436451,NA,NA,NA,1,2,"[0.0007628000000181601, 0.23311820000003536]","[0.21626800000001367, 0.2833196000000271]",163.9432619,164.243695,164.243695,164.243695,1,2,"[0.000617099999999482, 0.0664176000000225]","[0.049885299999971267, 0.28339280000000144]",164.5438981,164.5438981,"up",0.482638799999989,0,165.0445107,165.0445107,"right",0.534407200000004,0,NA,NA,NA,NA,NA,NA,1,1,"2025-09-29_14h39.25.465","paired","2022.2.4",59.9442398680697,"paired_1_1_10.csv",NA,NA,6
0.2,0.65,"down","centerFirst",0,28,28,11,0.000234700000021348,0.000234700000021348,165.6118143,167.1130903,167.1130903,167.1130903,167.1130903,167.4133665,167.4133665,167.4133665,2,3,"[0.00046370000001161316, 0.16664969999999357, 0.23345590000002403]","[0.14983290000003535, 0.21664229999998952, 0.30030360000000655]",167.4133665,167.7137673,167.7137673,167.7137673,1,2,"[0.0009284000000207016, 0.21654430000000957]","[0.19987300000002506, 0.28312250000004724]",168.0141076,168.0141076,"up",0.748497800000024,0,168.7816314,168.7816314,"right",0.580885300000006,0,NA,NA,NA,NA,NA,NA,1,1,"2025-09-29_14h39.25.465","paired","2022.2.4",59.9442398680697,"paired_1_1_10.csv",NA,NA,6
0.5,0.2,"up","centerFirst",0,29,29,22,0.00021380000004001,0.00021380000004001,169.3820495,170.8837135,170.8837135,170.8837135,170.8837135,171.1838505,171.1838505,171.1838505,16,1,"[0.03385950000000548]","[0.08352220000000443]",171.1838505,171.4841462,171.4841462,171.4841462,12,2,"[0.16740889999999808, 0.23381449999999404]","[0.2002006000000165, 0.2835931000000187]",171.7842996,171.7842996,"up",1.52988390000004,1,173.336172,173.336172,"left",0.586333999999994,1,NA,NA,NA,NA,NA,NA,1,1,"2025-09-29_14h39.25.465","paired","2022.2.4",59.9442398680697,"paired_1_1_10.csv",NA,NA,6
0.2,0.5,"down","centerFirst",0,30,30,9,0.000206699999978355,0.000206699999978355,173.9533021,175.4547834,175.4547834,175.4547834,175.4547834,NA,NA,NA,4,2,"[0.00046820000000025175, 0.13344079999995984]","[0.09985469999998031, 0.26688089999998965]",175.7552515,176.0554145,176.0554145,176.0554145,5,3,"[0.0004708999999820662, 0.050070599999969545, 0.250211199999967]","[0.033306100000004335, 0.19990529999995488, 0.2834363000000053]",176.3561806,176.3561806,"down",1.14216300000001,1,177.5236546,177.5236546,"left",1.22274300000001,1,NA,NA,NA,NA,NA,NA,1,1,"2025-09-29_14h39.25.465","paired","2022.2.4",59.9442398680697,"paired_1_1_10.csv",NA,NA,6
0.2,1,"up","centerFirst",0,31,31,16,0.000208499999985179,0.000208499999985179,178.774861,180.2765249,180.2765249,180.2765249,180.2765249,NA,NA,NA,3,3,"[0.01702329999994845, 0.0999711999999704, 0.1335329999999999]","[0.08317789999995284, 0.11673199999995632, 0.2839032999999631]",180.5769911,180.8768831,180.8768831,180.8768831,4,4,"[0.016782599999999093, 0.11681720000001405, 0.16692960000000312, 0.2838016000000039]","[0.10009450000001152, 0.15007050000002664, 0.2668239000000199, 0.28380430000004253]",181.1772689,181.1772689,"down",0.681587899999982,0,181.8787797,181.8787797,"right",0.467525800000004,0,NA,NA,NA,NA,NA,NA,1,1,"2025-09-29_14h39.25.465","paired","2022.2.4",59.9442398680697,"paired_1_1_10.csv",NA,NA,6
0.5,0.65,"up","centerFirst",0,32,32,28,0.000206499999990228,0.000206499999990228,182.3784614,183.8798508,183.8798508,183.8798508,183.8798508,NA,NA,NA,16,2,"[0.11667579999999589, 0.2505152999999609]","[0.13322329999999738, 0.2668749000000048]",184.1800511,184.480768,184.480768,184.480768,4,5,"[0.002084799999977349, 0.03373749999997244, 0.1507374999999911, 0.25083769999997685, 0.28406400000000076]","[0.0164578999999776, 0.13334499999996297, 0.23326459999998406, 0.2673886999999695, 0.2840754999999717]",184.7811512,184.7811512,"down",0.653335100000021,0,185.4652566,185.4652566,"left",0.808876999999967,1,NA,NA,NA,NA,NA,NA,1,1,"2025-09-29_14h39.25.465","paired","2022.2.4",59.9442398680697,"paired_1_1_10.csv",NA,NA,6
0.2,0.35,"up","centerFirst",0,33,33,6,0.000454599999955008,0.000454599999955008,186.2992983,187.8008927,187.8008927,187.8008927,187.8008927,188.100878,188.100878,188.100878,8,4,"[0.0010970000000156688, 0.08337249999999585, 0.16659450000003062, 0.23335180000003675]","[0.06619740000002139, 0.11616490000000113, 0.1829405999999949, 0.2993622999999843]",188.100878,188.4011867,188.4011867,188.4011867,0,1,"[0.0007745999999997366]","[0.28320009999998774]",188.7016093,188.7016093,"down",0.805859900000002,0,189.5357751,189.5357751,"right",0.394527699999998,0,188.4011867,NA,NA,NA,NA,NA,1,1,"2025-09-29_14h39.25.465","paired","2022.2.4",59.9442398680697,"paired_1_1_10.csv",NA,NA,6
0.8,0.8,"up","centerFirst",0,34,34,48,0.000330099999985123,0.000330099999985123,189.9529079,191.4544053,191.4544053,191.4544053,191.4544053,191.7546795,191.7546795,191.7546795,6,4,"[0.0007896000000187087, 0.04983550000002879, 0.09987580000000662, 0.25006000000001904]","[0.01623890000001893, 0.06612150000000838, 0.21636920000003101, 0.3001381000000265]",191.7546795,192.0548915,192.0548915,192.0548915,18,0,"","",192.3553592,192.3553592,"down",0.695857700000005,0,193.0728209,193.0728209,"right",0.62518350000002,0,192.0548915,NA,NA,NA,NA,NA,1,1,"2025-09-29_14h39.25.465","paired","2022.2.4",59.9442398680697,"paired_1_1_10.csv",NA,NA,6
0.2,0.1,"down","periphFirst",0,35,35,3,0.000445500000012089,0.000445500000012089,193.7233449,195.2248538,195.2248538,195.2248538,195.2248538,NA,NA,NA,1,3,"[0.0006726999999955297, 0.08556550000002972, 0.2692442000000028]","[0.06845420000001923, 0.2517202000000225, 0.2859068999999863]",195.5253838,195.8256511,195.8256511,195.8256511,2,3,"[0.002858000000003358, 0.06777649999997948, 0.24886789999999337]","[0.05034079999995811, 0.2319067999999902, 0.28250579999996717]",196.1258577,196.1258577,"up",0.741007800000006,0,196.8934847,196.8934847,"left",0.668987600000008,0,NA,NA,NA,NA,NA,NA,1,1,"2025-09-29_14h39.25.465","paired","2022.2.4",59.9442398680697,"paired_1_1_10.csv",NA,NA,6
0.5,0.2,"down","periphFirst",0,36,36,23,0.000215900000000602,0.000215900000000602,197.5936174,199.0951393,199.0951393,199.0951393,199.0951393,NA,NA,NA,16,2,"[0.033354499999973086, 0.2168882999999937]","[0.04976679999998623, 0.23337079999998878]",199.3954088,199.6957293,199.6957293,199.6957293,3,3,"[0.0004769000000237611, 0.13359070000001338, 0.23366980000002968]","[0.11674020000003793, 0.20018079999999827, 0.28393520000003036]",199.9961181,199.9961181,"up",1.20675229999998,0,201.2310059,201.2310059,"left",1.06745359999999,0,NA,NA,NA,NA,NA,NA,1,1,"2025-09-29_14h39.25.465","paired","2022.2.4",59.9442398680697,"paired_1_1_10.csv",NA,NA,6
0.5,0,"down","periphFirst",0,37,37,19,0.000330099999985123,0.000330099999985123,202.3151493,203.8165786,203.8165786,203.8165786,203.8165786,NA,NA,NA,15,3,"[0.03240019999998367, 0.09926359999997203, 0.286081299999978]","[0.049082899999973506, 0.11591099999998278, 0.28609839999995756]",204.1174844,204.4174565,204.4174565,204.4174565,7,5,"[0.017161600000008548, 0.05157739999998512, 0.10151880000000801, 0.15031129999999848, 0.2672767000000249]","[0.03411560000000691, 0.06743810000000394, 0.133438300000023, 0.2336520000000064, 0.28391410000000405]",204.7176884,204.7176884,"up",3.14186989999999,0,207.887698,207.887698,"left",0.291676799999976,0,NA,NA,NA,NA,NA,NA,1,1,"2025-09-29_14h39.25.465","paired","2022.2.4",59.9442398680697,"paired_1_1_10.csv",NA,NA,6
0.5,0.35,"down","centerFirst",0,38,38,25,0.000397000000020853,0.000397000000020853,208.2044964,209.706084,209.706084,209.706084,209.706084,210.0064146,210.0064146,210.0064146,19,0,"","",210.0064146,210.3068618,210.3068618,210.3068618,14,2,"[0.0006526999999891814, 0.28442139999998517]","[0.052090000000021064, 0.284430900000018]",210.6070984,210.6070984,"down",0.555441100000024,1,211.1912188,211.1912188,"left",0.667916499999961,1,210.3068618,NA,NA,NA,NA,NA,1,1,"2025-09-29_14h39.25.465","paired","2022.2.4",59.9442398680697,"paired_1_1_10.csv",NA,NA,6
0.8,0.9,"up","periphFirst",0,39,39,50,0.00070439999996097,0.00070439999996097,211.8916366,213.3931543,213.3931543,213.3931543,213.3931543,213.6933653,213.6933653,213.6933653,16,3,"[0.016524199999992106, 0.04966819999998506, 0.29890489999996817]","[0.03299319999996442, 0.06638770000000704, 0.29891459999998915]",213.6933653,213.9937533,213.9937533,213.9937533,2,3,"[0.0005793999999923471, 0.03563090000000102, 0.23464680000000726]","[0.01840420000002041, 0.21759409999998525, 0.30160519999998314]",214.2939705,214.2939705,"up",0.796300200000047,1,215.1118217,215.1118217,"left",0.339089799999982,0,213.9937533,214.2939705,214.2939705,214.2939705,NA,NA,1,1,"2025-09-29_14h39.25.465","paired","2022.2.4",59.9442398680697,"paired_1_1_10.csv",NA,NA,6
0.5,0.65,"down","periphFirst",0,40,40,29,0.000717500000007476,0.000717500000007476,215.4784655,216.9798092,216.9798092,216.9798092,216.9798092,NA,NA,NA,1,2,"[0.0008568000000082066, 0.10231590000000779]","[0.08474010000003318, 0.28552440000004253]",217.2804279,217.5807322,217.5807322,217.5807322,1,2,"[0.002899099999979171, 0.051629899999966256]","[0.03371049999998377, 0.2829712999999856]",217.8808934,217.8808934,"up",1.10547920000002,0,219.0154628,219.0154628,"left",0.531469799999996,0,NA,NA,NA,NA,NA,NA,1,1,"2025-09-29_14h39.25.465","paired","2022.2.4",59.9442398680697,"paired_1_1_10.csv",NA,NA,6
0.8,0.35,"down","periphFirst",0,41,41,43,0.000349999999968986,0.000349999999968986,219.5659084,221.0677972,221.0677972,221.0677972,221.0677972,221.3675241,221.3675241,221.3675241,12,2,"[0.1635106999999607, 0.24692499999997608]","[0.21359350000000177, 0.2969463999999675]",221.3675241,221.6678468,221.6678468,221.6678468,6,5,"[0.0008396999999717991, 0.06672379999997702, 0.15013619999996308, 0.23350309999995034, 0.28343659999995907]","[0.049670800000001236, 0.11644529999995257, 0.19985889999998108, 0.26662869999995564, 0.30027699999999413]",221.9683119,221.9683119,"up",2.02575650000003,0,224.0202372,224.0202372,"left",0.342405000000014,0,221.6678468,221.9683119,221.9683119,221.9683119,NA,NA,1,1,"2025-09-29_14h39.25.465","paired","2022.2.4",59.9442398680697,"paired_1_1_10.csv",NA,NA,6
0.2,0.35,"down","periphFirst",0,42,42,7,0.000396099999989019,0.000396099999989019,224.3872326,225.8888333,225.8888333,225.8888333,225.8888333,226.1891496,226.1891496,226.1891496,3,2,"[0.0165726000000177, 0.13243230000000494]","[0.09926769999998442, 0.2999234000000115]",226.1891496,226.489351,226.489351,226.489351,2,2,"[0.0009696999999846412, 0.06711380000001554]","[0.033393699999976434, 0.2839905000000158]",226.7896512,226.7896512,"down",0.66171829999999,1,227.4742476,227.4742476,"left",0.697387499999962,0,NA,NA,NA,NA,NA,NA,1,1,"2025-09-29_14h39.25.465","paired","2022.2.4",59.9442398680697,"paired_1_1_10.csv",NA,NA,6
0.5,0.35,"up","centerFirst",0,43,43,24,0.000663499999973283,0.000663499999973283,228.191318,229.6926133,229.6926133,229.6926133,229.6926133,229.992916,229.992916,229.992916,14,2,"[0.21683890000002748, 0.26685579999997344]","[0.24986200000000736, 0.30017529999997805]",229.992916,230.293138,230.293138,230.293138,5,3,"[0.001070599999991373, 0.15036809999998013, 0.2506063000000154]","[0.13345820000000685, 0.20015590000002703, 0.28393269999997983]",230.5935216,230.5935216,"down",0.409992300000027,0,231.0273445,231.0273445,"right",0.42343850000006,0,NA,NA,NA,NA,NA,NA,1,1,"2025-09-29_14h39.25.465","paired","2022.2.4",59.9442398680697,"paired_1_1_10.csv",NA,NA,6
0.8,0.1,"down","centerFirst",0,44,44,39,0.000354100000038216,0.000354100000038216,231.4777706,232.9792533,232.9792533,232.9792533,232.9792533,NA,NA,NA,2,2,"[0.0004659999999603315, 0.16844619999994848]","[0.15130569999996624, 0.2846678999999881]",233.279722,233.579904,233.579904,233.579904,1,2,"[0.0022397999999839158, 0.11600770000001148]","[0.0988775000000146, 0.28307100000000673]",233.8802624,233.8802624,"down",0.410511800000023,1,234.3139711,234.3139711,"right",0.736223599999988,0,NA,NA,NA,NA,NA,NA,1,1,"2025-09-29_14h39.25.465","paired","2022.2.4",59.9442398680697,"paired_1_1_10.csv",NA,NA,6
0.5,1,"up","periphFirst",0,45,45,34,0.000334100000031867,0.000334100000031867,235.0813551,236.5832267,236.5832267,236.5832267,236.5832267,236.8833555,236.8833555,236.8833555,1,1,"[0.0027284999999892534]","[0.29821359999999686]",236.8833555,237.1837805,237.1837805,237.1837805,3,3,"[0.0008083000000169704, 0.08290210000001252, 0.1831814000000236]","[0.04943250000002308, 0.16618400000004385, 0.2998453000000154]",237.483966,237.483966,"down",1.0873086,0,238.6016557,238.6016557,"right",1.14459559999997,1,237.1837805,237.483966,237.483966,237.483966,NA,NA,1,1,"2025-09-29_14h39.25.465","paired","2022.2.4",59.9442398680697,"paired_1_1_10.csv",NA,NA,6
0.5,0,"up","centerFirst",0,46,46,18,0.000338999999996759,0.000338999999996759,239.7693827,241.2709143,241.2709143,241.2709143,241.2709143,241.5711066,241.5711066,241.5711066,19,0,"","",241.5711066,241.8713776,241.8713776,241.8713776,18,0,"","",242.1719163,242.1719163,"down",1.72666589999997,0,243.9237806,243.9237806,"right",0.366621400000014,0,NA,NA,NA,NA,NA,NA,1,1,"2025-09-29_14h39.25.465","paired","2022.2.4",59.9442398680697,"paired_1_1_10.csv",NA,NA,6
0.5,0.8,"up","periphFirst",0,47,47,30,0.000978700000018762,0.000978700000018762,244.307596,245.8087651,245.8087651,245.8087651,245.8087651,246.1090038,246.1090038,246.1090038,11,4,"[0.033135700000002544, 0.06664810000000898, 0.11648159999998597, 0.21654059999997344]","[0.04979279999997743, 0.08322909999998274, 0.1331354999999803, 0.3000533999999675]",246.1090038,246.4095555,246.4095555,246.4095555,1,2,"[0.002890799999988758, 0.28345999999999094]","[0.26634599999999864, 0.28346929999997883]",246.7097915,246.7097915,"up",4.18892559999998,1,250.9307287,250.9307287,"left",0.25553899999997,0,NA,NA,NA,NA,NA,NA,1,1,"2025-09-29_14h39.25.465","paired","2022.2.4",59.9442398680697,"paired_1_1_10.csv",NA,NA,6
0.8,1,"down","periphFirst",0,48,48,53,0.000438000000031025,0.000438000000031025,251.2142233,252.7157783,252.7157783,252.7157783,252.7157783,253.0160017,253.0160017,253.0160017,2,3,"[0.0005527999999799249, 0.18366470000000845, 0.2837859999999637]","[0.16657509999998865, 0.2666517999999769, 0.3005186999999978]",253.0160017,253.3161059,253.3161059,253.3161059,3,2,"[0.034130500000003394, 0.16935929999999644]","[0.15182199999998147, 0.2861475999999925]",253.6169974,253.6169974,"down",0.994001999999995,1,254.6343522,254.6343522,"left",0.784743900000052,0,NA,NA,NA,NA,NA,NA,1,1,"2025-09-29_14h39.25.465","paired","2022.2.4",59.9442398680697,"paired_1_1_10.csv",NA,NA,6
0.5,0.9,"up","centerFirst",0,49,49,32,0.000339899999971749,0.000339899999971749,255.4516223,256.9536661,256.9536661,256.9536661,256.9536661,257.2536299,257.2536299,257.2536299,5,3,"[0.0027375999999890155, 0.06658229999999321, 0.26550859999997556]","[0.033173299999987194, 0.2154921999999715, 0.2989670999999703]",257.2536299,257.5537549,257.5537549,257.5537549,4,1,"[0.0008199999999760621]","[0.23312160000000404]",257.8542397,257.8542397,"up",1.18106319999995,1,259.0554784,259.0554784,"right",1.22722730000001,0,257.5537549,257.8542397,257.8542397,257.8542397,NA,NA,1,1,"2025-09-29_14h39.25.465","paired","2022.2.4",59.9442398680697,"paired_1_1_10.csv",NA,NA,6
0.2,0.9,"down","centerFirst",0,50,50,15,0.000353899999993246,0.000353899999993246,260.3066893,261.8081069,261.8081069,261.8081069,261.8081069,262.1083043,262.1083043,262.1083043,12,5,"[0.0008563000000094689, 0.03318159999997761, 0.09995709999998326, 0.1666541999999822, 0.26673820000002024]","[0.016583700000012414, 0.04993100000001505, 0.11663099999998394, 0.20005670000000464, 0.3002098999999703]",262.1083043,262.4086266,262.4086266,262.4086266,10,5,"[0.03353179999999156, 0.08355359999995926, 0.11707339999998112, 0.2169002999999634, 0.2501565999999684]","[0.06655259999996588, 0.10007650000000012, 0.15009620000000723, 0.23318399999999428, 0.28312819999996464]",262.7089568,262.7089568,"up",1.72635639999996,0,264.4609641,264.4609641,"right",0.405891200000013,0,NA,NA,NA,NA,NA,NA,1,1,"2025-09-29_14h39.25.465","paired","2022.2.4",59.9442398680697,"paired_1_1_10.csv",NA,NA,6
0.2,0,"down","centerFirst",0,51,51,1,0.00111530000003768,0.00111530000003768,264.8948084,266.3960625,266.3960625,266.3960625,266.3960625,266.6963196,266.6963196,266.6963196,2,3,"[0.0009478000000058273, 0.20006649999999127, 0.25008679999996275]","[0.18291069999997944, 0.23326079999998228, 0.30021440000001576]",266.6963196,266.9965282,266.9965282,266.9965282,18,0,"","",267.2970306,267.2970306,"down",0.889574099999976,1,268.2146183,268.2146183,"right",1.10893519999999,0,266.9965282,NA,NA,NA,NA,NA,1,1,"2025-09-29_14h39.25.465","paired","2022.2.4",59.9442398680697,"paired_1_1_10.csv",NA,NA,6
0.8,0.2,"up","periphFirst",0,52,52,40,0.000330200000007608,0.000330200000007608,269.348958,270.8504055,270.8504055,270.8504055,270.8504055,271.1507037,271.1507037,271.1507037,10,2,"[0.06597130000000107, 0.16642209999997704]","[0.09950500000002194, 0.29946920000003274]",271.1507037,271.4509959,271.4509959,271.4509959,1,1,"[0.0007557000000133485]","[0.2998746999999753]",271.751347,271.751347,"up",1.55609869999998,1,273.3363969,273.3363969,"left",0.681923500000011,0,271.4509959,271.751347,271.751347,271.751347,NA,NA,1,1,"2025-09-29_14h39.25.465","paired","2022.2.4",59.9442398680697,"paired_1_1_10.csv",NA,NA,6
0.2,0.2,"up","centerFirst",0,53,53,4,0.000694300000020576,0.000694300000020576,274.0371256,275.5384374,275.5384374,275.5384374,275.5384374,275.8386522,275.8386522,275.8386522,19,0,"","",275.8386522,276.1390684,276.1390684,276.1390684,18,0,"","",276.4395764,276.4395764,"down",1.96388909999999,0,278.4247308,278.4247308,"right",0.377979600000032,0,NA,NA,NA,NA,NA,NA,1,1,"2025-09-29_14h39.25.465","paired","2022.2.4",59.9442398680697,"paired_1_1_10.csv",NA,NA,6
NA,NA,"","",NA,NA,NA,NA,NA,NA,NA,NA,NA,NA,NA,NA,NA,NA,NA,NA,"","",NA,NA,NA,NA,NA,NA,"","",NA,NA,"",NA,NA,NA,NA,"",NA,NA,NA,NA,NA,NA,5.70999999922606e-05,0.499073399999986,NA,NA,"","","",NA,"paired_1_1_10.csv",NA,NA,NA
0.2,0.9,"up","periphFirst",0,0,0,14,0.00538430000005974,0.00538430000005974,46.8455705000001,48.3484693,48.3484693,48.3484693,48.3484693,48.6489042999997,48.6489042999997,48.6489042999997,19,0,"","",48.6489042999997,48.9497769999998,48.9497769999998,48.9497769999998,7,3,"[0.054240699999809294, 0.14981059999990975, 0.25017899999966176]","[0.1159258999996382, 0.23307049999993978, 0.2832493999999315]",49.2494286000001,49.2494286000001,"up",0.587237400000049,1,49.8670659999998,49.8670659999998,"left",0.690385999999762,0,NA,NA,NA,NA,NA,NA,1,10,"2025-09-29_15h35.17.623","paired","2022.2.4",59.9277511032942,"paired_1_10_7.csv",NA,NA,2
0.2,1,"down","periphFirst",0,1,1,17,0.000321999999869149,0.000321999999869149,50.5841062,52.0853822999998,52.0853822999998,52.0853822999998,52.0853822999998,NA,NA,NA,17,1,"[0.20071629999983998]","[0.21741740000015852]",52.3859730999998,52.6859654,52.6859654,52.6859654,12,2,"[0.01657759999989139, 0.2167394999996759]","[0.033167199999752484, 0.2839199000000008]",52.9864859999998,52.9864859999998,"down",1.73078289999967,1,54.7387014999999,54.7387014999999,"right",0.611637599999995,1,NA,NA,NA,NA,NA,NA,1,10,"2025-09-29_15h35.17.623","paired","2022.2.4",59.9277511032942,"paired_1_10_7.csv",NA,NA,2
0.5,0.1,"up","centerFirst",0,2,2,20,0.00120089999973061,0.00120089999973061,55.3725067999999,56.8740365999997,56.8740365999997,56.8740365999997,56.8740365999997,57.1742178999998,57.1742178999998,57.1742178999998,1,2,"[0.0029597999996440194, 0.16420689999995375]","[0.14741909999975178, 0.29911689999971713]",57.1742178999998,57.4745508000001,57.4745508000001,57.4745508000001,3,4,"[0.0019041000000470376, 0.13307960000020103, 0.19993120000026465, 0.248678800000107]","[0.11585460000014791, 0.18270329999995738, 0.23165530000005674, 0.3002553999999691]",57.7749868000001,57.7749868000001,"up",0.414611799999875,1,58.2088241000001,58.2088241000001,"left",0.461222099999759,1,57.4745508000001,57.7749868000001,57.7749868000001,57.7749868000001,NA,NA,1,10,"2025-09-29_15h35.17.623","paired","2022.2.4",59.9277511032942,"paired_1_10_7.csv",NA,NA,2
0.8,0.5,"down","centerFirst",0,3,3,45,0.000321799999710493,0.000321799999710493,58.6922012999999,60.1935776,60.1935776,60.1935776,60.1935776,60.4940948999997,60.4940948999997,60.4940948999997,18,1,"[0.2997699000002285]","[0.2997749000001022]",60.4940948999997,60.7943581,60.7943581,60.7943581,10,4,"[0.0008106999998744868, 0.06650129999979981, 0.16653519999999844, 0.23340369999959876]","[0.04992809999976089, 0.11667399999987538, 0.18334809999987556, 0.2501577999996698]",61.0948069999999,61.0948069999999,"up",0.382797599999776,0,61.495046,61.495046,"left",0.326600899999903,1,60.7943581,NA,NA,NA,NA,NA,1,10,"2025-09-29_15h35.17.623","paired","2022.2.4",59.9277511032942,"paired_1_10_7.csv",NA,NA,2
0.5,0,"down","periphFirst",0,4,4,19,0.000330699999722128,0.000330699999722128,61.8454385,63.3470933999997,63.3470933999997,63.3470933999997,63.3470933999997,63.6473569,63.6473569,63.6473569,14,3,"[0.0027067999999417225, 0.06662529999994149, 0.16637360000004264]","[0.049661099999866565, 0.09868809999989026, 0.1821168999999827]",63.6473569,63.9474209999998,63.9474209999998,63.9474209999998,10,1,"[0.0007639999998900748]","[0.15003669999987324]",64.2478373999998,64.2478373999998,"up",0.484829900000022,0,64.7652595,64.7652595,"left",0.951990199999727,0,63.9474209999998,64.2478373999998,64.2478373999998,64.2478373999998,NA,NA,1,10,"2025-09-29_15h35.17.623","paired","2022.2.4",59.9277511032942,"paired_1_10_7.csv",NA,NA,2
0.2,0.2,"down","periphFirst",0,5,5,5,0.000320999999985361,0.000320999999985361,65.7492748,67.2510923,67.2510923,67.2510923,67.2510923,67.5512063000001,67.5512063000001,67.5512063000001,0,2,"[0.0027048000001741457, 0.21665919999986727]","[0.19945580000012342, 0.2989216999999371]",67.5512063000001,67.8515794,67.8515794,67.8515794,6,3,"[0.0016684999995959515, 0.03330899999991743, 0.21564459999990504]","[0.016747299999678944, 0.1321008999998412, 0.2991653999997652]",68.1518932999998,68.1518932999998,"up",0.445288500000061,0,68.6190551999998,68.6190551999998,"right",0.498230599999715,1,67.8515794,68.1518932999998,68.1518932999998,68.1518932999998,NA,NA,1,10,"2025-09-29_15h35.17.623","paired","2022.2.4",59.9277511032942,"paired_1_10_7.csv",NA,NA,2
0.5,0.2,"up","centerFirst",0,6,6,22,0.000330700000176876,0.000330700000176876,69.1360485999999,70.6375766000001,70.6375766000001,70.6375766000001,70.6375766000001,70.9378698999999,70.9378698999999,70.9378698999999,15,4,"[0.0664664000000812, 0.14936000000034255, 0.2666661000002932, 0.3000197000001208]","[0.08277300000008836, 0.1664491999999882, 0.2831808999999339, 0.30002439999998387]",70.9378698999999,71.2378813999999,71.2378813999999,71.2378813999999,18,0,"","",71.5383256999999,71.5383256999999,"up",2.84268999999995,1,74.4079665999998,74.4079665999998,"right",0.285343000000012,0,71.2378813999999,NA,NA,NA,NA,NA,1,10,"2025-09-29_15h35.17.623","paired","2022.2.4",59.9277511032942,"paired_1_10_7.csv",NA,NA,2
0.5,0.1,"down","periphFirst",0,7,7,21,0.000290000000404689,0.000290000000404689,74.7247411999997,76.2262130999998,76.2262130999998,76.2262130999998,76.2262130999998,NA,NA,NA,9,8,"[0.0005136999998285319, 0.0331968999998935, 0.08309749999989435, 0.11658820000002379, 0.14988129999983357, 0.18324930000017048, 0.23347169999988182, 0.2690309999998135]","[0.01629899999988993, 0.06670059999987643, 0.10001999999985856, 0.1332300999997642, 0.16644319999977597, 0.19992129999991448, 0.25000219999992623, 0.28414100000009057]",76.5265469999999,76.8268650999998,76.8268650999998,76.8268650999998,13,3,"[0.03348009999990609, 0.10039929999993547, 0.2509110999999393]","[0.04987249999976484, 0.11671739999974307, 0.2844141000000491]",77.1275357,77.1275357,"down",0.581859299999905,1,77.7281530999999,77.7281530999999,"right",1.0054941999997,1,NA,NA,NA,NA,NA,NA,1,10,"2025-09-29_15h35.17.623","paired","2022.2.4",59.9277511032942,"paired_1_10_7.csv",NA,NA,2
0.2,0.65,"up","centerFirst",0,8,8,10,0.000338100000135455,0.000338100000135455,78.7623472,80.2637728,80.2637728,80.2637728,80.2637728,80.5638507999997,80.5638507999997,80.5638507999997,2,2,"[0.002017000000250846, 0.14819420000003447]","[0.11513030000014624, 0.2985834999999497]",80.5638507999997,80.8646117999997,80.8646117999997,80.8646117999997,0,1,"[0.00286950000008801]","[0.2821186999999554]",81.1649207,81.1649207,"down",0.328964699999688,0,81.5153301,81.5153301,"left",0.641525199999705,1,NA,NA,NA,NA,NA,NA,1,10,"2025-09-29_15h35.17.623","paired","2022.2.4",59.9277511032942,"paired_1_10_7.csv",NA,NA,2
0.5,0.2,"down","periphFirst",0,9,9,23,0.000221600000259059,0.000221600000259059,82.1824584000001,83.6839863999999,83.6839863999999,83.6839863999999,83.6839863999999,83.9842788000001,83.9842788000001,83.9842788000001,3,3,"[0.0007689999997637642, 0.049868899999637506, 0.2499351999999817]","[0.01626799999985451, 0.23310339999989083, 0.3001740999998219]",83.9842788000001,84.2845560000001,84.2845560000001,84.2845560000001,9,4,"[0.0009208999999827938, 0.10039959999994608, 0.2171186000000489, 0.28391880000026504]","[0.016707900000255904, 0.1838132000002588, 0.2505059000000074, 0.28392359999998007]",84.5850284999997,84.5850284999997,"up",0.628581599999961,0,85.2357065000001,85.2357065000001,"right",0.537886900000103,1,NA,NA,NA,NA,NA,NA,1,10,"2025-09-29_15h35.17.623","paired","2022.2.4",59.9277511032942,"paired_1_10_7.csv",NA,NA,2
0.8,0.5,"up","periphFirst",0,10,10,44,0.000325099999827216,0.000325099999827216,85.8026879999998,87.3039829999998,87.3039829999998,87.3039829999998,87.3039829999998,87.6042256999999,87.6042256999999,87.6042256999999,3,2,"[0.00048050000032162643, 0.06647370000018782]","[0.016552300000057585, 0.30006470000034824]",87.6042256999999,87.9045476000001,87.9045476000001,87.9045476000001,4,4,"[0.0004617999998117739, 0.05009969999991881, 0.1502029999996921, 0.2670392999998512]","[0.033348499999647174, 0.13343880000002173, 0.2505517999998119, 0.28360879999991084]",88.2050267999998,88.2050267999998,"up",0.615491099999872,1,88.8390868000001,88.8390868000001,"right",0.334367800000109,1,NA,NA,NA,NA,NA,NA,1,10,"2025-09-29_15h35.17.623","paired","2022.2.4",59.9277511032942,"paired_1_10_7.csv",NA,NA,2
0.8,0.2,"down","periphFirst",0,11,11,41,0.0011530000001585,0.0011530000001585,89.1897246999997,90.6909597999997,90.6909597999997,90.6909597999997,90.6909597999997,90.9912902999999,90.9912902999999,90.9912902999999,0,1,"[0.000769899999795598]","[0.3000960999997915]",90.9912902999999,91.2915680000001,91.2915680000001,91.2915680000001,1,2,"[0.0009743999999045627, 0.2169779999999264]","[0.20038060000024416, 0.28397369999993316]",91.5919246999997,91.5919246999997,"down",0.549544200000128,1,92.1593296999999,92.1593296999999,"right",0.293499800000063,1,NA,NA,NA,NA,NA,NA,1,10,"2025-09-29_15h35.17.623","paired","2022.2.4",59.9277511032942,"paired_1_10_7.csv",NA,NA,2
0.5,0.8,"down","centerFirst",0,12,12,31,0.000325200000133918,0.000325200000133918,92.4759693000001,93.9775030000001,93.9775030000001,93.9775030000001,93.9775030000001,94.2777983999999,94.2777983999999,94.2777983999999,9,4,"[0.03325119999999515, 0.06654029999981503, 0.21676829999978509, 0.2834015999997064]","[0.049627200000031735, 0.13303129999985686, 0.26635529999975915, 0.30015339999999924]",94.2777983999999,94.5782181999998,94.5782181999998,94.5782181999998,7,7,"[0.0009141000000454369, 0.08345890000009604, 0.11677159999999276, 0.1503907999999683, 0.20045260000006238, 0.23393069999974614, 0.28397050000012314]","[0.06652679999979227, 0.09987240000009479, 0.1331534000000829, 0.18356739999990168, 0.216896099999758, 0.25023479999981646, 0.28397580000000744]",94.8786405000001,94.8786405000001,"up",0.494740300000103,0,95.3959110000001,95.3959110000001,"right",0.633272500000203,0,NA,NA,NA,NA,NA,NA,1,10,"2025-09-29_15h35.17.623","paired","2022.2.4",59.9277511032942,"paired_1_10_7.csv",NA,NA,2
0.5,0.9,"up","centerFirst",0,13,13,32,0.000340000000051077,0.000340000000051077,96.0463135,97.5479762,97.5479762,97.5479762,97.5479762,97.8481425999998,97.8481425999998,97.8481425999998,5,2,"[0.066563099999712, 0.11464299999988725]","[0.09881719999975758, 0.29791919999979655]",97.8481425999998,98.1483711999999,98.1483711999999,98.1483711999999,18,1,"[0.2998428999999305]","[0.299845699999878]",98.4488888999999,98.4488888999999,"up",0.33263659999966,1,98.7993185999999,98.7993185999999,"right",0.262235099999998,0,98.1483711999999,98.4488888999999,98.4488888999999,98.4488888999999,NA,NA,1,10,"2025-09-29_15h35.17.623","paired","2022.2.4",59.9277511032942,"paired_1_10_7.csv",NA,NA,2
0.2,1,"up","centerFirst",0,14,14,16,0.000317999999879248,0.000317999999879248,99.0825732999997,100.5839594,100.5839594,100.5839594,100.5839594,NA,NA,NA,9,3,"[0.05045689999997194, 0.10050999999975829, 0.18409589999964737]","[0.06702219999988301, 0.16722759999993286, 0.2504988999999114]",100.8844226,101.1848376,101.1848376,101.1848376,15,1,"[0.25050140000030297]","[0.28391440000041257]",101.4852206,101.4852206,"up",0.375605599999744,1,101.8855201,101.8855201,"left",0.639796199999637,1,NA,NA,NA,NA,NA,NA,1,10,"2025-09-29_15h35.17.623","paired","2022.2.4",59.9277511032942,"paired_1_10_7.csv",NA,NA,2
0.2,0.2,"up","centerFirst",0,15,15,4,0.000326100000165752,0.000326100000165752,102.5528448,104.0543718,104.0543718,104.0543718,104.0543718,104.3546533,104.3546533,104.3546533,4,4,"[0.0007578999998258951, 0.09990119999974922, 0.23325990000012098, 0.28334499999982654]","[0.08280949999971199, 0.19973399999980757, 0.26638359999969907, 0.3001487999999881]",104.3546533,104.6548709,104.6548709,104.6548709,1,2,"[0.0009361999996144732, 0.133738899999571]","[0.11650579999968613, 0.28387789999987945]",104.9552334,104.9552334,"up",0.426391099999819,1,105.4058948,105.4058948,"left",0.631673299999875,1,NA,NA,NA,NA,NA,NA,1,10,"2025-09-29_15h35.17.623","paired","2022.2.4",59.9277511032942,"paired_1_10_7.csv",NA,NA,2
0.8,0.65,"down","centerFirst",0,16,16,47,0.000334399999701418,0.000334399999701418,106.0563304,107.5579715,107.5579715,107.5579715,107.5579715,NA,NA,NA,18,0,"","",107.8583661,108.1583526,108.1583526,108.1583526,13,3,"[0.06696020000026692, 0.11706379999986893, 0.1837946999999076]","[0.10010700000020734, 0.15028010000014547, 0.2003005999999914]",108.4588964,108.4588964,"up",0.361967100000129,0,108.8425357,108.8425357,"left",0.867250799999965,1,NA,NA,NA,NA,NA,NA,1,10,"2025-09-29_15h35.17.623","paired","2022.2.4",59.9277511032942,"paired_1_10_7.csv",NA,NA,2
0.8,0.9,"up","periphFirst",0,17,17,50,0.000328900000113208,0.000328900000113208,109.7265639,111.228252,111.228252,111.228252,111.228252,111.5284279,111.5284279,111.5284279,15,2,"[0.001182199999675504, 0.233296099999734]","[0.04946949999975914, 0.2500071999997999]",111.5284279,111.8288209,111.8288209,111.8288209,6,3,"[0.0011076999999204418, 0.1999164999997447, 0.2666999999996733]","[0.13279139999986, 0.2497244999999566, 0.2828548999996201]",112.1292684,112.1292684,"down",0.588167400000202,0,112.7462536,112.7462536,"left",1.29955840000002,0,111.8288209,NA,NA,NA,NA,NA,1,10,"2025-09-29_15h35.17.623","paired","2022.2.4",59.9277511032942,"paired_1_10_7.csv",NA,NA,2
0.2,0.8,"up","periphFirst",0,18,18,12,0.000379399999928864,0.000379399999928864,114.0643705,115.5658902,115.5658902,115.5658902,115.5658902,115.866179,115.866179,115.866179,5,2,"[0.03319120000014664, 0.2834435999998277]","[0.23291810000000623, 0.2999933000000965]",115.866179,116.1663536,116.1663536,116.1663536,2,1,"[0.03371220000008179]","[0.2835943000000043]",116.4669134,116.4669134,"down",0.977806999999757,0,117.4679905,117.4679905,"right",0.785817899999984,1,NA,NA,NA,NA,NA,NA,1,10,"2025-09-29_15h35.17.623","paired","2022.2.4",59.9277511032942,"paired_1_10_7.csv",NA,NA,2
0.8,0.35,"down","periphFirst",0,19,19,43,0.000639199999568518,0.000639199999568518,118.285379,119.7866452,119.7866452,119.7866452,119.7866452,120.0870573,120.0870573,120.0870573,13,4,"[0.01636370000005627, 0.06656700000030469, 0.1165579000003163, 0.2834575000001678]","[0.04942849999997634, 0.08293739999999161, 0.1332961000002797, 0.3001251999999113]",120.0870573,120.3872573,120.3872573,120.3872573,6,4,"[0.0009154999997917912, 0.10020850000000792, 0.14991409999993266, 0.21694310000020778]","[0.05010039999979199, 0.13319229999979143, 0.20043189999978495, 0.283698799999911]",120.6875752,120.6875752,"down",0.534029300000384,1,121.2383737,121.2383737,"right",0.614869800000179,1,NA,NA,NA,NA,NA,NA,1,10,"2025-09-29_15h35.17.623","paired","2022.2.4",59.9277511032942,"paired_1_10_7.csv",NA,NA,2
0.8,0.1,"up","periphFirst",0,20,20,38,0.000335400000039954,0.000335400000039954,121.8721961,123.3738139,123.3738139,123.3738139,123.3738139,123.6739667,123.6739667,123.6739667,8,4,"[0.0016338000000359898, 0.06669499999998152, 0.11684500000001208, 0.3004087999997864]","[0.04960299999993367, 0.09947869999996328, 0.20009479999998803, 0.30041909999999916]",123.6739667,123.9743872,123.9743872,123.9743872,6,5,"[0.0018303000001651526, 0.03322299999990719, 0.16664540000010675, 0.20012399999995978, 0.23329139999987092]","[0.015952799999922718, 0.14943429999993896, 0.1833041999998386, 0.21619139999984327, 0.2662068999998155]",124.2747009,124.2747009,"down",1.02629059999981,0,125.325697,125.325697,"right",1.69632379999985,1,123.9743872,NA,NA,NA,NA,NA,1,10,"2025-09-29_15h35.17.623","paired","2022.2.4",59.9277511032942,"paired_1_10_7.csv",NA,NA,2
0.5,0.5,"down","periphFirst",0,21,21,27,0.000330200000007608,0.000330200000007608,127.0439408,128.5458228,128.5458228,128.5458228,128.5458228,128.845568,128.845568,128.845568,15,1,"[0.002694300000257499]","[0.06538020000016331]",128.845568,129.1460306,129.1460306,129.1460306,0,1,"[0.0007661999998163083]","[0.30009659999996074]",129.4467157,129.4467157,"up",0.646145300000171,0,130.1138778,130.1138778,"left",0.467105000000174,0,129.1460306,129.4467157,129.4467157,129.4467157,NA,NA,1,10,"2025-09-29_15h35.17.623","paired","2022.2.4",59.9277511032942,"paired_1_10_7.csv",NA,NA,2
0.5,0.9,"down","periphFirst",0,22,22,33,0.000318699999752425,0.000318699999752425,130.5974604,132.0991246,132.0991246,132.0991246,132.0991246,132.3994667,132.3994667,132.3994667,0,1,"[0.0018943000000035681]","[0.300055500000326]",132.3994667,132.6998523,132.6998523,132.6998523,3,3,"[0.0019568000002436747, 0.1332416000000194, 0.18323159999999916]","[0.09910650000028909, 0.1495853999999781, 0.2984965000000557]",132.9998577,132.9998577,"up",0.653969199999665,0,133.6841666,133.6841666,"right",0.225841500000115,1,132.6998523,132.9998577,132.9998577,132.9998577,NA,NA,1,10,"2025-09-29_15h35.17.623","paired","2022.2.4",59.9277511032942,"paired_1_10_7.csv",NA,NA,2
0.8,0,"down","periphFirst",0,23,23,37,0.00033560000019861,0.00033560000019861,133.9342702,135.4356263,135.4356263,135.4356263,135.4356263,135.7359369,135.7359369,135.7359369,9,3,"[0.0007565000000795408, 0.149921500000346, 0.18330060000016601]","[0.11654279999993378, 0.16619940000009592, 0.19978260000016235]",135.7359369,136.0363908,136.0363908,136.0363908,15,2,"[0.11665009999978793, 0.23373270000001867]","[0.1336753000000499, 0.2671143999996275]",136.3367525,136.3367525,"up",0.541090799999893,0,136.904117,136.904117,"left",0.236767500000042,0,NA,NA,NA,NA,NA,NA,1,10,"2025-09-29_15h35.17.623","paired","2022.2.4",59.9277511032942,"paired_1_10_7.csv",NA,NA,2
0.2,0.1,"up","periphFirst",0,24,24,2,0.000340799999776209,0.000340799999776209,137.1707079,138.6722185,138.6722185,138.6722185,138.6722185,138.9725452,138.9725452,138.9725452,4,5,"[0.0008002999998097948, 0.08324539999966873, 0.13305169999966893, 0.23326189999988856, 0.2667295999999624]","[0.06612509999968097, 0.11613760000000184, 0.216306099999656, 0.24968939999962458, 0.30014940000000934]",138.9725452,139.272785,139.272785,139.272785,1,2,"[0.0009221999998771935, 0.267258800000036]","[0.2502588000002106, 0.28375670000013997]",139.5733556,139.5733556,"up",0.752072800000406,1,140.3575564,140.3575564,"left",0.240591899999799,0,NA,NA,NA,NA,NA,NA,1,10,"2025-09-29_15h35.17.623","paired","2022.2.4",59.9277511032942,"paired_1_10_7.csv",NA,NA,2
0.2,0.8,"down","periphFirst",0,25,25,13,0.000320600000122795,0.000320600000122795,140.6241477,142.1257998,142.1257998,142.1257998,142.1257998,142.4259906,142.4259906,142.4259906,4,5,"[0.0008297999997921579, 0.04999779999980092, 0.09993579999991198, 0.20016350000014427, 0.2668819999998959]","[0.03301599999986138, 0.08309099999996761, 0.18322110000008252, 0.24994470000001456, 0.30028809999976147]",142.4259906,142.7262439,142.7262439,142.7262439,7,5,"[0.0009024000000863452, 0.05033180000009452, 0.10042569999995976, 0.18388439999989714, 0.23399979999976495]","[0.016642099999899074, 0.08352659999991374, 0.13348839999980555, 0.21692080000002534, 0.28411419999974896]",143.0267127,143.0267127,"up",0.595786500000031,0,143.6443278,143.6443278,"right",0.248896099999911,1,NA,NA,NA,NA,NA,NA,1,10,"2025-09-29_15h35.17.623","paired","2022.2.4",59.9277511032942,"paired_1_10_7.csv",NA,NA,2
0.2,0.5,"up","periphFirst",0,26,26,8,0.00068470000041998,0.00068470000041998,143.9110542,145.4121328,145.4121328,145.4121328,145.4121328,NA,NA,NA,2,2,"[0.0008000000002539309, 0.04975980000017444]","[0.016121099999963917, 0.28381060000037905]",145.7126864,146.0131158,146.0131158,146.0131158,1,2,"[0.0008975000000646105, 0.08350909999990108]","[0.06658949999973629, 0.28360380000003715]",146.3135765,146.3135765,"down",0.72413140000026,0,147.0642613,147.0642613,"right",0.324571400000423,1,NA,NA,NA,NA,NA,NA,1,10,"2025-09-29_15h35.17.623","paired","2022.2.4",59.9277511032942,"paired_1_10_7.csv",NA,NA,2
0.8,0.65,"up","centerFirst",0,27,27,46,0.000329599999986385,0.000329599999986385,147.4143917,148.9159516,148.9159516,148.9159516,148.9159516,149.2162634,149.2162634,149.2162634,10,5,"[0.03329699999994773, 0.08328149999988455, 0.1500898999997844, 0.23356979999971372, 0.2835838999999396]","[0.06623209999997925, 0.11642499999970823, 0.16642589999992197, 0.26650389999986146, 0.30019799999990937]",149.2162634,149.5165071,149.5165071,149.5165071,8,4,"[0.0008804999997664709, 0.10036499999978332, 0.15023969999992914, 0.2672293999999056]","[0.0663219999996727, 0.11683259999972506, 0.20030299999962153, 0.2837741999996979]",149.8169809,149.8169809,"down",1.51624870000023,0,151.3518835,151.3518835,"right",0.806038499999886,0,NA,NA,NA,NA,NA,NA,1,10,"2025-09-29_15h35.17.623","paired","2022.2.4",59.9277511032942,"paired_1_10_7.csv",NA,NA,2
0.5,0.65,"down","periphFirst",0,28,28,29,0.000338100000135455,0.000338100000135455,152.1859266,153.6874728,153.6874728,153.6874728,153.6874728,153.9876407,153.9876407,153.9876407,8,5,"[0.016400900000007823, 0.0659722000000329, 0.13158710000016072, 0.16518660000019736, 0.2151627000002918]","[0.03232980000029784, 0.11466370000016468, 0.14818480000030831, 0.19832810000025347, 0.28160650000017995]",153.9876407,154.2878474,154.2878474,154.2878474,2,3,"[0.0007507000000259723, 0.06659769999987475, 0.30017940000016097]","[0.04968159999998534, 0.28353569999990214, 0.3001844999998866]",154.5883934,154.5883934,"up",1.14470889999984,0,155.7562949,155.7562949,"right",0.616428699999688,1,154.2878474,154.5883934,154.5883934,154.5883934,NA,NA,1,10,"2025-09-29_15h35.17.623","paired","2022.2.4",59.9277511032942,"paired_1_10_7.csv",NA,NA,2
0.8,0,"up","centerFirst",0,29,29,36,0.000337999999828753,0.000337999999828753,156.3899476,157.8927596,157.8927596,157.8927596,157.8927596,NA,NA,NA,2,3,"[0.000618199999735225, 0.03357509999977992, 0.21745549999968716]","[0.018191999999999098, 0.20051100000000588, 0.2841014999999061]",158.1918673,158.4921687,158.4921687,158.4921687,16,2,"[0.0009168000001409382, 0.1840581999999813]","[0.017217099999925267, 0.20067389999985608]",158.7925968,158.7925968,"down",0.525028399999883,0,159.3432153,159.3432153,"left",0.285396000000219,1,NA,NA,NA,NA,NA,NA,1,10,"2025-09-29_15h35.17.623","paired","2022.2.4",59.9277511032942,"paired_1_10_7.csv",NA,NA,2
0.8,0.1,"down","centerFirst",0,30,30,39,0.000324600000112696,0.000324600000112696,159.6598621,161.1613189,161.1613189,161.1613189,161.1613189,161.4617292,161.4617292,161.4617292,2,2,"[0.0008013000001483306, 0.18343749999985448]","[0.1500162000002092, 0.30022250000001804]",161.4617292,161.7619371,161.7619371,161.7619371,2,2,"[0.0008991999998215761, 0.25024039999971137]","[0.21672579999994923, 0.2831922999998824]",162.0627017,162.0627017,"down",0.311225399999785,1,162.3962538,162.3962538,"right",0.825711899999988,0,NA,NA,NA,NA,NA,NA,1,10,"2025-09-29_15h35.17.623","paired","2022.2.4",59.9277511032942,"paired_1_10_7.csv",NA,NA,2
0.8,0.8,"up","centerFirst",0,31,31,48,0.000314899999921181,0.000314899999921181,163.2467455,164.748194,164.748194,164.748194,164.748194,165.0487256,165.0487256,165.0487256,8,4,"[0.0007895999997344916, 0.13315149999971254, 0.18336169999975027, 0.2667765999999574]","[0.09981669999979204, 0.1496075000000019, 0.21670939999967231, 0.3001580999998623]",165.0487256,165.3489154,165.3489154,165.3489154,12,2,"[0.050318699999934324, 0.13361089999989417]","[0.08342020000009143, 0.20052850000001854]",165.6491968,165.6491968,"down",0.316352499999994,0,165.9832046,165.9832046,"left",0.782707700000174,1,NA,NA,NA,NA,NA,NA,1,10,"2025-09-29_15h35.17.623","paired","2022.2.4",59.9277511032942,"paired_1_10_7.csv",NA,NA,2
0.5,0.35,"down","centerFirst",0,32,32,25,0.000331099999584694,0.000331099999584694,166.7836656,168.2852961,168.2852961,168.2852961,168.2852961,168.5855254,168.5855254,168.5855254,3,3,"[0.0007571000001007633, 0.033065999999962514, 0.08321449999994002]","[0.01626559999976962, 0.06618239999988873, 0.29980010000008406]",168.5855254,168.8857643,168.8857643,168.8857643,2,3,"[0.0008805000002212182, 0.08370160000004034, 0.15043289999994158]","[0.0667250999999851, 0.13340840000000753, 0.28375740000001315]",169.1863483,169.1863483,"down",0.387575300000208,1,169.6034198,169.6034198,"right",0.290451699999721,0,NA,NA,NA,NA,NA,NA,1,10,"2025-09-29_15h35.17.623","paired","2022.2.4",59.9277511032942,"paired_1_10_7.csv",NA,NA,2
0.8,0.8,"down","centerFirst",0,33,33,49,0.000334700000166777,0.000334700000166777,169.9202625,171.4217309,171.4217309,171.4217309,171.4217309,171.7220525,171.7220525,171.7220525,4,5,"[0.00075669999978345, 0.04992549999997209, 0.11666160000004311, 0.23344389999965642, 0.26681220000000394]","[0.032969999999750144, 0.0995029999999133, 0.2164850999997725, 0.249704699999711, 0.30007039999964036]",171.7220525,172.0222699,172.0222699,172.0222699,6,5,"[0.0009245000001101289, 0.0335957000002054, 0.20028270000011617, 0.25040630000012243, 0.283894500000315]","[0.016563099999984843, 0.16684150000037334, 0.2168123999999807, 0.2670381000002635, 0.28389900000001944]",172.3225286,172.3225286,"up",0.314789700000347,0,172.656276,172.656276,"left",0.317489800000203,1,NA,NA,NA,NA,NA,NA,1,10,"2025-09-29_15h35.17.623","paired","2022.2.4",59.9277511032942,"paired_1_10_7.csv",NA,NA,2
0.2,0.35,"down","periphFirst",0,34,34,7,0.0011423000000832,0.0011423000000832,172.9902644,174.4915431,174.4915431,174.4915431,174.4915431,174.7918092,174.7918092,174.7918092,4,5,"[0.0007894999998825369, 0.06662129999995159, 0.1166547000002538, 0.26684260000001814, 0.30014200000005076]","[0.04992420000007769, 0.09998900000027788, 0.2498556999998982, 0.283203400000275, 0.30014680000022054]",174.7918092,175.0920825,175.0920825,175.0920825,12,2,"[0.10045880000006946, 0.21719200000006822]","[0.11681079999971189, 0.2837819000001218]",175.3925486,175.3925486,"up",0.412585600000057,0,175.8261388,175.8261388,"right",1.23489259999997,1,NA,NA,NA,NA,NA,NA,1,10,"2025-09-29_15h35.17.623","paired","2022.2.4",59.9277511032942,"paired_1_10_7.csv",NA,NA,2
0.5,0,"up","centerFirst",0,35,35,18,0.000341899999966699,0.000341899999966699,177.0774919,178.5788147,178.5788147,178.5788147,178.5788147,178.8792655,178.8792655,178.8792655,6,3,"[0.03343989999984842, 0.16707309999992503, 0.23380260000021735]","[0.11668109999982335, 0.21678139999994528, 0.30049619999999777]",178.8792655,179.1794336,179.1794336,179.1794336,4,4,"[0.0008621000001767243, 0.050296500000058586, 0.18378400000028705, 0.21732740000015838]","[0.033325800000056915, 0.15001580000034664, 0.20005370000035327, 0.284058400000049]",179.4798973,179.4798973,"up",0.269873199999893,1,179.7802487,179.7802487,"left",0.425314099999923,1,NA,NA,NA,NA,NA,NA,1,10,"2025-09-29_15h35.17.623","paired","2022.2.4",59.9277511032942,"paired_1_10_7.csv",NA,NA,2
0.5,0.35,"up","centerFirst",0,36,36,24,0.000330100000155653,0.000330100000155653,180.2305366,181.7320823,181.7320823,181.7320823,181.7320823,182.0325208,182.0325208,182.0325208,14,2,"[0.1999244000003273, 0.24967040000001361]","[0.21643760000006296, 0.30010500000025786]",182.0325208,182.3327518,182.3327518,182.3327518,14,2,"[0.0007696000002397341, 0.19999660000030417]","[0.016735000000153377, 0.23337089999995442]",182.6331235,182.6331235,"down",0.444624100000055,0,183.1002479,183.1002479,"left",0.233517699999993,1,182.3327518,NA,NA,NA,NA,NA,1,10,"2025-09-29_15h35.17.623","paired","2022.2.4",59.9277511032942,"paired_1_10_7.csv",NA,NA,2
0.8,1,"up","centerFirst",0,37,37,52,0.000322700000197074,0.000322700000197074,183.3503741,184.8518711,184.8518711,184.8518711,184.8518711,NA,NA,NA,0,1,"[0.00046619999966424075]","[0.2840419999997721]",185.1522192,185.4524125,185.4524125,185.4524125,2,1,"[0.033604100000047765]","[0.28364190000002054]",185.7528174,185.7528174,"down",0.348927999999887,0,186.1200391,186.1200391,"right",0.26923910000005,0,NA,NA,NA,NA,NA,NA,1,10,"2025-09-29_15h35.17.623","paired","2022.2.4",59.9277511032942,"paired_1_10_7.csv",NA,NA,2
0.8,0.35,"up","centerFirst",0,38,38,42,0.00031940000008035,0.00031940000008035,186.4201049,187.9217744,187.9217744,187.9217744,187.9217744,188.2219345,188.2219345,188.2219345,11,5,"[0.01670800000010786, 0.1166864000001624, 0.21448329999975613, 0.24758369999972274, 0.2978368999997656]","[0.06671679999999469, 0.15002189999995608, 0.23056739999992715, 0.2641585000001214, 0.29784079999990354]",188.2219345,188.5221777,188.5221777,188.5221777,15,4,"[0.11661420000018552, 0.18328780000001643, 0.24998649999997724, 0.282916799999839]","[0.13297700000020996, 0.1999919999998383, 0.26652270000022327, 0.2996548000000985]",188.8223575,188.8223575,"up",0.734849000000395,1,189.5901226,189.5901226,"right",1.2480387999999,0,188.5221777,188.8223575,188.8223575,188.8223575,NA,NA,1,10,"2025-09-29_15h35.17.623","paired","2022.2.4",59.9277511032942,"paired_1_10_7.csv",NA,NA,2
0.2,0.9,"down","centerFirst",0,39,39,15,0.000318700000207173,0.000318700000207173,190.8579071,192.3592974,192.3592974,192.3592974,192.3592974,192.6595745,192.6595745,192.6595745,5,4,"[0.0007678000001760665, 0.14966550000008283, 0.18337620000011157, 0.2666435000001002]","[0.13288870000042152, 0.16630410000016127, 0.24968340000032185, 0.2841894000002867]",192.6595745,192.960139,192.960139,192.960139,3,4,"[0.002034900000126072, 0.09961169999996855, 0.18242469999995592, 0.2826343000001543]","[0.08309490000010555, 0.16534199999978227, 0.26611400000001595, 0.28263860000015484]",193.2604984,193.2604984,"up",0.352360200000021,0,193.6440624,193.6440624,"right",0.352892200000042,0,NA,NA,NA,NA,NA,NA,1,10,"2025-09-29_15h35.17.623","paired","2022.2.4",59.9277511032942,"paired_1_10_7.csv",NA,NA,2
0.5,0.8,"up","periphFirst",0,40,40,30,0.000339699999585719,0.000339699999585719,194.0276859,195.5292182,195.5292182,195.5292182,195.5292182,195.829507,195.829507,195.829507,9,4,"[0.0007565999999314954, 0.09990299999981289, 0.13332989999980782, 0.23322899999993751]","[0.03283180000016728, 0.11620050000010451, 0.21644579999974667, 0.24958719999995083]",195.829507,196.12975,196.12975,196.12975,5,2,"[0.050194899999951303, 0.13382559999990917]","[0.11678299999994124, 0.28385709999975006]",196.4303224,196.4303224,"up",0.726753200000076,1,197.180838,197.180838,"left",0.216944299999795,0,NA,NA,NA,NA,NA,NA,1,10,"2025-09-29_15h35.17.623","paired","2022.2.4",59.9277511032942,"paired_1_10_7.csv",NA,NA,2
0.2,0.1,"down","periphFirst",0,41,41,3,0.000337500000114233,0.000337500000114233,197.414433,198.9160169,198.9160169,198.9160169,198.9160169,199.2162558,199.2162558,199.2162558,0,1,"[0.0016456999996989907]","[0.29975070000000414]",199.2162558,199.5167055,199.5167055,199.5167055,15,2,"[0.08363069999995787, 0.15004510000017035]","[0.11675879999984318, 0.16634990000011385]",199.8171237,199.8171237,"up",0.564336200000071,0,200.4008907,200.4008907,"left",0.413075399999798,0,199.5167055,199.8171237,199.8171237,199.8171237,NA,NA,1,10,"2025-09-29_15h35.17.623","paired","2022.2.4",59.9277511032942,"paired_1_10_7.csv",NA,NA,2
0.2,0,"up","periphFirst",0,42,42,0,0.000702100000125938,0.000702100000125938,200.8346715,202.3359508,202.3359508,202.3359508,202.3359508,202.6363879,202.6363879,202.6363879,9,4,"[0.0010517000000618282, 0.19985170000018115, 0.23310330000003887, 0.2998928000001797]","[0.09891930000003413, 0.21615269999983866, 0.2660934000000452, 0.2998975000000428]",202.6363879,202.9366481,202.9366481,202.9366481,8,3,"[0.0007599999999001739, 0.1499669999998332, 0.28337889999966137]","[0.08336179999969318, 0.21655650000002424, 0.28338369999983115]",203.2370959,203.2370959,"up",0.624448699999903,1,203.8880374,203.8880374,"right",0.254220900000291,1,202.9366481,NA,NA,NA,NA,NA,1,10,"2025-09-29_15h35.17.623","paired","2022.2.4",59.9277511032942,"paired_1_10_7.csv",NA,NA,2
0.8,1,"down","periphFirst",0,43,43,53,0.00150770000027478,0.00150770000027478,204.1713631,205.6725778,205.6725778,205.6725778,205.6725778,205.9729558,205.9729558,205.9729558,5,3,"[0.0007596999998895626, 0.049856199999794626, 0.13330459999997402]","[0.016102199999750155, 0.11616909999975178, 0.28311089999988326]",205.9729558,206.2731055,206.2731055,206.2731055,9,4,"[0.0007528999999522057, 0.18353609999985565, 0.23317329999963476, 0.26685079999970185]","[0.09968009999965943, 0.19978420000006736, 0.2496406999998726, 0.2833365999999842]",206.5737691,206.5737691,"up",1.76799170000004,0,208.3588589,208.3588589,"right",0.581982199999857,1,206.2731055,NA,NA,NA,NA,NA,1,10,"2025-09-29_15h35.17.623","paired","2022.2.4",59.9277511032942,"paired_1_10_7.csv",NA,NA,2
0.2,0.5,"down","centerFirst",0,44,44,9,0.000341100000241568,0.000341100000241568,208.9593422,210.4607028,210.4607028,210.4607028,210.4607028,210.7611274,210.7611274,210.7611274,0,1,"[0.0008092000002761779]","[0.3001140999999734]",210.7611274,211.0613742,211.0613742,211.0613742,1,2,"[0.000869699999839213, 0.1003352000002451]","[0.08357169999999314, 0.28390429999990374]",211.3616816,211.3616816,"down",0.53234829999974,1,211.912458,211.912458,"left",0.540851499999917,1,NA,NA,NA,NA,NA,NA,1,10,"2025-09-29_15h35.17.623","paired","2022.2.4",59.9277511032942,"paired_1_10_7.csv",NA,NA,2
0.5,1,"up","periphFirst",0,45,45,34,0.000325200000133918,0.000325200000133918,212.479448,213.9809795,213.9809795,213.9809795,213.9809795,214.2813276,214.2813276,214.2813276,6,2,"[0.04994109999961438, 0.18318809999982477]","[0.1328429000000142, 0.30015729999968244]",214.2813276,214.5815211,214.5815211,214.5815211,4,2,"[0.0009179999997286359, 0.2336961999999403]","[0.16679870000007213, 0.28388019999965763]",214.8820376,214.8820376,"down",1.37891010000021,0,216.2835395,216.2835395,"right",0.250273099999959,1,NA,NA,NA,NA,NA,NA,1,10,"2025-09-29_15h35.17.623","paired","2022.2.4",59.9277511032942,"paired_1_10_7.csv",NA,NA,2
0.5,1,"down","periphFirst",0,46,46,35,0.000338800000008632,0.000338800000008632,216.5501386,218.0516791,218.0516791,218.0516791,218.0516791,218.35181,218.35181,218.35181,2,2,"[0.0008616000000074564, 0.28320369999983086]","[0.2497478999998748, 0.2998408999997082]",218.35181,218.6523498,218.6523498,218.6523498,1,2,"[0.0007694000000810775, 0.2667203999999401]","[0.24988299999995434, 0.283487900000182]",218.9528394,218.9528394,"down",0.828147799999897,1,219.8037262,219.8037262,"right",0.234058400000322,1,218.6523498,NA,NA,NA,NA,NA,1,10,"2025-09-29_15h35.17.623","paired","2022.2.4",59.9277511032942,"paired_1_10_7.csv",NA,NA,2
0.2,0.65,"down","centerFirst",0,47,47,11,0.000342099999670609,0.000342099999670609,220.0704926,221.5718632,221.5718632,221.5718632,221.5718632,NA,NA,NA,4,1,"[0.06698649999998452]","[0.2836833999999726]",221.872227,222.172483,222.172483,222.172483,5,3,"[0.03373009999995702, 0.11700029999974504, 0.267334000000119]","[0.10009179999997286, 0.23375919999989492, 0.28399730000001]",222.4730127,222.4730127,"down",0.580877700000201,1,223.0737802,223.0737802,"left",0.732350000000224,1,NA,NA,NA,NA,NA,NA,1,10,"2025-09-29_15h35.17.623","paired","2022.2.4",59.9277511032942,"paired_1_10_7.csv",NA,NA,2
0.2,0.35,"up","centerFirst",0,48,48,6,0.000344199999744887,0.000344199999744887,223.8242174,225.325755,225.325755,225.325755,225.325755,225.6261755,225.6261755,225.6261755,14,3,"[0.050123399999847607, 0.10000170000012076, 0.24987190000001647]","[0.06664649999993344, 0.11637620000010429, 0.29964380000001256]",225.6261755,225.9264188,225.9264188,225.9264188,5,2,"[0.03274210000017774, 0.24804149999999936]","[0.23094590000027893, 0.28148970000029294]",226.2266832,226.2266832,"up",0.34717240000009,1,226.5938919,226.5938919,"right",0.451312700000017,0,225.9264188,226.2266832,226.2266832,226.2266832,NA,NA,1,10,"2025-09-29_15h35.17.623","paired","2022.2.4",59.9277511032942,"paired_1_10_7.csv",NA,NA,2
0.5,0.65,"up","centerFirst",0,49,49,28,0.000321900000017195,0.000321900000017195,227.07731,228.5788561,228.5788561,228.5788561,228.5788561,NA,NA,NA,8,2,"[0.0007940000000417058, 0.26934469999969224]","[0.11915529999987484, 0.28633949999994]",228.8797713,229.1796896,229.1796896,229.1796896,9,4,"[0.0017514999999548309, 0.10051160000011805, 0.1506467999997767, 0.2172537999999804]","[0.016711599999780447, 0.13338810000004742, 0.16729209999994055, 0.28394399999979214]",229.480244,229.480244,"up",0.309880499999963,1,229.8137781,229.8137781,"left",0.272353800000019,1,NA,NA,NA,NA,NA,NA,1,10,"2025-09-29_15h35.17.623","paired","2022.2.4",59.9277511032942,"paired_1_10_7.csv",NA,NA,2
0.8,0.2,"up","periphFirst",0,50,50,40,0.000713599999926373,0.000713599999926373,230.1138706,231.6152289,231.6152289,231.6152289,231.6152289,NA,NA,NA,0,1,"[0.00041119999968941556]","[0.2841393999997308]",231.9155752,232.2159375,232.2159375,232.2159375,4,2,"[0.0009208000001308392, 0.06712800000013885]","[0.03345450000006167, 0.2672259999999369]",232.5162809,232.5162809,"down",0.809738899999957,0,233.3505951,233.3505951,"right",0.246260699999766,1,NA,NA,NA,NA,NA,NA,1,10,"2025-09-29_15h35.17.623","paired","2022.2.4",59.9277511032942,"paired_1_10_7.csv",NA,NA,2
0.5,0.5,"up","centerFirst",0,51,51,26,0.000488399999994726,0.000488399999994726,233.6174098,235.1186966,235.1186966,235.1186966,235.1186966,235.4190501,235.4190501,235.4190501,9,4,"[0.01664149999987785, 0.050095600000076956, 0.18373150000024907, 0.300407499999892]","[0.03339490000007572, 0.10020209999993313, 0.2667231999998876, 0.3004126000000724]",235.4190501,235.7194136,235.7194136,235.7194136,8,3,"[0.016538900000341528, 0.11692270000003191, 0.20033970000031331]","[0.0336566999999377, 0.16693919999988793, 0.28374299999995856]",236.0197437,236.0197437,"up",0.385587300000225,1,236.4370643,236.4370643,"left",0.36108269999977,1,NA,NA,NA,NA,NA,NA,1,10,"2025-09-29_15h35.17.623","paired","2022.2.4",59.9277511032942,"paired_1_10_7.csv",NA,NA,2
0.8,0.9,"down","centerFirst",0,52,52,51,0.000332799999796407,0.000332799999796407,236.8205519,238.3220748,238.3220748,238.3220748,238.3220748,238.6223795,238.6223795,238.6223795,3,3,"[0.0008047999999689637, 0.21641120000003866, 0.2828434000002744]","[0.18292689999998402, 0.2659676000002946, 0.29988170000024184]",238.6223795,238.9228167,238.9228167,238.9228167,5,4,"[0.0017727999997987354, 0.13410010000006878, 0.18411479999986113, 0.28236669999978403]","[0.11668859999963388, 0.16680139999971288, 0.2334461000000374, 0.2823694999997315]",239.2229354,239.2229354,"up",2.2064363999998,0,241.4590149,241.4590149,"right",0.210369300000366,0,NA,NA,NA,NA,NA,NA,1,10,"2025-09-29_15h35.17.623","paired","2022.2.4",59.9277511032942,"paired_1_10_7.csv",NA,NA,2
0.2,0,"down","centerFirst",0,53,53,1,0.000208500000098866,0.000208500000098866,241.6917611,243.1936511,243.1936511,243.1936511,243.1936511,243.4938427,243.4938427,243.4938427,10,3,"[0.016994699999941076, 0.1500952999999754, 0.3004569999998239]","[0.033830099999704544, 0.2672867999999653, 0.3004622999997082]",243.4938427,243.7940665,243.7940665,243.7940665,13,3,"[0.01679199999989578, 0.050180400000044756, 0.20031220000009853]","[0.03315789999987828, 0.06688649999978225, 0.2504479999997784]",244.0945943,244.0945943,"up",0.67088909999984,0,244.7951664,244.7951664,"right",0.299520800000209,0,NA,NA,NA,NA,NA,NA,1,10,"2025-09-29_15h35.17.623","paired","2022.2.4",59.9277511032942,"paired_1_10_7.csv",NA,NA,2
NA,NA,"","",NA,NA,NA,NA,NA,NA,NA,NA,NA,NA,NA,NA,NA,NA,NA,NA,"","",NA,NA,NA,NA,NA,NA,"","",NA,NA,"",NA,NA,NA,NA,"",NA,NA,NA,NA,NA,NA,0.000176399999872956,0.495677800000067,NA,NA,"","","",NA,"paired_1_10_7.csv",NA,NA,NA
0.2,0.35,"up","centerFirst",0,0,0,6,0.00695790000008856,0.00695790000008856,54.6983709000001,56.2011981000001,56.2011981000001,56.2011981000001,56.2011981000001,56.5015212000003,56.5015212000003,56.5015212000003,19,0,"","",56.5015212000003,56.8024092000001,56.8024092000001,56.8024092000001,18,0,"","",57.1021042000002,57.1021042000002,"down",0.619237699999758,0,57.7526576999999,57.7526576999999,"right",1.05642419999958,0,NA,NA,NA,NA,NA,NA,1,11,"2025-09-29_15h42.36.454","paired","2022.2.4",60.0215237183115,"paired_1_11_2.csv",NA,NA,6
0.8,0.5,"up","periphFirst",0,1,1,44,0.000196199999663804,0.000196199999663804,58.8368614999999,60.3385692000002,60.3385692000002,60.3385692000002,60.3385692000002,60.6389635999999,60.6389635999999,60.6389635999999,18,1,"[0.26662880000003497]","[0.28300020000006043]",60.6389635999999,60.9392913000001,60.9392913000001,60.9392913000001,18,0,"","",61.2397226000003,61.2397226000003,"up",0.35284829999955,1,61.6234638999999,61.6234638999999,"right",0.969887399999607,1,60.9392913000001,NA,NA,NA,NA,NA,1,11,"2025-09-29_15h42.36.454","paired","2022.2.4",60.0215237183115,"paired_1_11_2.csv",NA,NA,6
0.8,0.8,"up","centerFirst",0,2,2,48,0.000216699999782577,0.000216699999782577,62.6243221,64.1258781000001,64.1258781000001,64.1258781000001,64.1258781000001,64.4260696000001,64.4260696000001,64.4260696000001,4,5,"[0.0008748000000196043, 0.06647789999988163, 0.1165473999999449, 0.19999360000019806, 0.2334421000000475]","[0.049697399999786285, 0.09962429999995948, 0.18291890000000421, 0.21645780000017112, 0.30004349999990154]",64.4260696000001,64.7263376000001,64.7263376000001,64.7263376000001,9,5,"[0.0008972000000539992, 0.10034260000020367, 0.20044010000037815, 0.2337577000002966, 0.28383880000001227]","[0.06656560000010359, 0.11662100000012288, 0.2167303000001084, 0.2668892000001506, 0.2838440000000446]",65.0267549999999,65.0267549999999,"up",0.286314499999662,1,65.3439357000002,65.3439357000002,"right",1.93745679999984,0,NA,NA,NA,NA,NA,NA,1,11,"2025-09-29_15h42.36.454","paired","2022.2.4",60.0215237183115,"paired_1_11_2.csv",NA,NA,6
0.5,0,"down","periphFirst",0,3,3,19,0.00033560000019861,0.00033560000019861,67.3122905,68.8137368000002,68.8137368000002,68.8137368000002,68.8137368000002,69.1140199000001,69.1140199000001,69.1140199000001,19,0,"","",69.1140199000001,69.4144615999999,69.4144615999999,69.4144615999999,18,0,"","",69.7148781000001,69.7148781000001,"up",1.60596659999965,0,71.3500165999999,71.3500165999999,"left",0.227036699999644,0,69.4144615999999,NA,NA,NA,NA,NA,1,11,"2025-09-29_15h42.36.454","paired","2022.2.4",60.0215237183115,"paired_1_11_2.csv",NA,NA,6
0.8,0.1,"up","periphFirst",0,4,4,38,0.00033080000002883,0.00033080000002883,71.5997090000001,73.1013483000002,73.1013483000002,73.1013483000002,73.1013483000002,73.4016265,73.4016265,73.4016265,16,2,"[0.18313249999982872, 0.2665683000000172]","[0.1996046999997816, 0.2999006999998528]",73.4016265,73.7017786000001,73.7017786000001,73.7017786000001,18,0,"","",74.0024979,74.0024979,"down",0.365921599999638,0,74.3861858999999,74.3861858999999,"left",0.774198099999467,0,73.7017786000001,NA,NA,NA,NA,NA,1,11,"2025-09-29_15h42.36.454","paired","2022.2.4",60.0215237183115,"paired_1_11_2.csv",NA,NA,6
0.8,0.65,"down","centerFirst",0,5,5,47,0.000335400000039954,0.000335400000039954,75.1868417999999,76.6883897000002,76.6883897000002,76.6883897000002,76.6883897000002,76.9886850000003,76.9886850000003,76.9886850000003,18,1,"[0.0832989999998972]","[0.0995520999999826]",76.9886850000003,77.2888517000001,77.2888517000001,77.2888517000001,17,1,"[0.10006000000021231]","[0.11679370000001654]",77.5894934000003,77.5894934000003,"down",0.355592299999898,1,77.9731293,77.9731293,"right",0.251701700000012,0,NA,NA,NA,NA,NA,NA,1,11,"2025-09-29_15h42.36.454","paired","2022.2.4",60.0215237183115,"paired_1_11_2.csv",NA,NA,6
0.2,0,"up","periphFirst",0,6,6,0,0.000457300000107352,0.000457300000107352,78.2566240000001,79.7580481000005,79.7580481000005,79.7580481000005,79.7580481000005,80.0583965000005,80.0583965000005,80.0583965000005,18,1,"[0.13279710000006162]","[0.14938230000007025]",80.0583965000005,80.3587315000004,80.3587315000004,80.3587315000004,17,1,"[0.000773799999478797]","[0.016505599999618425]",80.6591034000003,80.6591034000003,"up",0.685612599999786,1,81.3766146999997,81.3766146999997,"left",0.2800000000002,0,80.3587315000004,NA,NA,NA,NA,NA,1,11,"2025-09-29_15h42.36.454","paired","2022.2.4",60.0215237183115,"paired_1_11_2.csv",NA,NA,6
0.8,0,"down","periphFirst",0,7,7,37,0.000332399999933841,0.000332399999933841,81.6766989999996,83.1781410000003,83.1781410000003,83.1781410000003,83.1781410000003,83.4784904999997,83.4784904999997,83.4784904999997,18,1,"[0.2000809000001027]","[0.21639760000016395]",83.4784904999997,83.7786791999997,83.7786791999997,83.7786791999997,13,3,"[0.08357999999952881, 0.13361299999996845, 0.2335397999995621]","[0.10039439999945898, 0.16716339999948104, 0.25007689999983995]",84.0793286999997,84.0793286999997,"down",1.26558049999994,1,85.3639503000004,85.3639503000004,"right",0.245966099999805,1,NA,NA,NA,NA,NA,NA,1,11,"2025-09-29_15h42.36.454","paired","2022.2.4",60.0215237183115,"paired_1_11_2.csv",NA,NA,6
0.5,0.2,"down","periphFirst",0,8,8,23,0.000328600000102597,0.000328600000102597,85.6305359999997,87.1321698000002,87.1321698000002,87.1321698000002,87.1321698000002,87.4323451,87.4323451,87.4323451,16,2,"[0.23341600000003382, 0.30023239999991347]","[0.2667089999995369, 0.30023739999978716]",87.4323451,87.7327709000001,87.7327709000001,87.7327709000001,13,2,"[0.20056469999963156, 0.2339457999996739]","[0.21720060000006924, 0.2839665999999852]",88.0332059000002,88.0332059000002,"up",0.703494400000181,0,88.7673341,88.7673341,"right",0.273870499999703,1,NA,NA,NA,NA,NA,NA,1,11,"2025-09-29_15h42.36.454","paired","2022.2.4",60.0215237183115,"paired_1_11_2.csv",NA,NA,6
0.8,1,"up","centerFirst",0,9,9,52,0.000319899999340123,0.000319899999340123,89.0674335000003,90.5689438999998,90.5689438999998,90.5689438999998,90.5689438999998,90.8692247999998,90.8692247999998,90.8692247999998,18,1,"[0.28331489999982296]","[0.30020039999999426]",90.8692247999998,91.1694374999997,91.1694374999997,91.1694374999997,14,4,"[0.1170590000001539, 0.21715990000029706, 0.2505674000003637, 0.28390029999991384]","[0.13329650000014226, 0.23353970000061963, 0.2668816000004881, 0.28390459999991435]",91.4698145000002,91.4698145000002,"up",0.435283599999366,1,91.9371718000002,91.9371718000002,"left",0.575805899999523,1,NA,NA,NA,NA,NA,NA,1,11,"2025-09-29_15h42.36.454","paired","2022.2.4",60.0215237183115,"paired_1_11_2.csv",NA,NA,6
0.2,0.65,"up","centerFirst",0,10,10,10,0.000207900000532391,0.000207900000532391,92.5374426999997,94.0391085000001,94.0391085000001,94.0391085000001,94.0391085000001,94.3390744999997,94.3390744999997,94.3390744999997,16,3,"[0.1499509000004764, 0.2502362000004723, 0.29989579999983107]","[0.1664944000003743, 0.26660549999996874, 0.2999006999998528]",94.3390744999997,94.6396648,94.6396648,94.6396648,12,4,"[0.000921599999855971, 0.11695859999963432, 0.18368459999965125, 0.2839067000004434]","[0.016673299999638402, 0.13346679999995104, 0.23362670000005892, 0.28391149999970366]",94.9401261000003,94.9401261000003,"down",0.437851199999841,0,95.4073275000001,95.4073275000001,"left",0.514203899999757,1,NA,NA,NA,NA,NA,NA,1,11,"2025-09-29_15h42.36.454","paired","2022.2.4",60.0215237183115,"paired_1_11_2.csv",NA,NA,6
0.8,0,"up","centerFirst",0,11,11,36,0.000326599999425525,0.000326599999425525,95.9409436000005,97.4424909999998,97.4424909999998,97.4424909999998,97.4424909999998,97.7427312999998,97.7427312999998,97.7427312999998,19,0,"","",97.7427312999998,98.0429973999999,98.0429973999999,98.0429973999999,17,1,"[0.2836335000001782]","[0.2836386999997558]",98.3435049,98.3435049,"down",0.889080599999488,0,99.2610838999999,99.2610838999999,"right",0.291583099999571,0,NA,NA,NA,NA,NA,NA,1,11,"2025-09-29_15h42.36.454","paired","2022.2.4",60.0215237183115,"paired_1_11_2.csv",NA,NA,6
0.8,0.2,"up","periphFirst",0,12,12,40,0.000330400000166264,0.000330400000166264,99.5777969999999,101.0794487,101.0794487,101.0794487,101.0794487,101.3798159,101.3798159,101.3798159,2,2,"[0.0007898000003478955, 0.09981620000053226]","[0.0661086999998588, 0.3002511000004233]",101.3798159,101.6800774,101.6800774,101.6800774,2,2,"[0.0008918999992602039, 0.06705179999971733]","[0.033503799999380135, 0.28378499999962514]",101.9804298,101.9804298,"up",0.564694600000166,1,102.5642042,102.5642042,"right",0.284424599999966,1,NA,NA,NA,NA,NA,NA,1,11,"2025-09-29_15h42.36.454","paired","2022.2.4",60.0215237183115,"paired_1_11_2.csv",NA,NA,6
0.2,0.5,"up","periphFirst",0,13,13,8,0.000339700000040466,0.000339700000040466,102.8812539,104.3829013,104.3829013,104.3829013,104.3829013,104.6829484,104.6829484,104.6829484,14,2,"[0.1997254999996585, 0.2641811000003145]","[0.2317771999996694, 0.29707950000010896]",104.6829484,104.9832493,104.9832493,104.9832493,18,1,"[0.04986099999950966]","[0.06665369999973336]",105.2838255,105.2838255,"up",0.813588199999231,1,106.1179462,106.1179462,"right",0.435208299999886,1,104.9832493,105.2838255,105.2838255,105.2838255,NA,NA,1,11,"2025-09-29_15h42.36.454","paired","2022.2.4",60.0215237183115,"paired_1_11_2.csv",NA,NA,6
0.5,0.2,"up","centerFirst",0,14,14,22,0.000329999999848951,0.000329999999848951,106.5849571,108.0865326,108.0865326,108.0865326,108.0865326,108.3868221,108.3868221,108.3868221,8,4,"[0.0010166000001845532, 0.08327120000012656, 0.15005639999981213, 0.18334909999975935]","[0.03273360000002867, 0.11615379999966535, 0.16635669999959646, 0.28299479999986943]",108.3868221,108.6871236,108.6871236,108.6871236,4,3,"[0.0011612999996941653, 0.06682830000045215, 0.2837054999999964]","[0.017122700000072655, 0.2666188000002876, 0.28371030000016617]",108.9875055,108.9875055,"up",0.413898899999822,1,109.4213515,109.4213515,"left",0.363644000000477,1,NA,NA,NA,NA,NA,NA,1,11,"2025-09-29_15h42.36.454","paired","2022.2.4",60.0215237183115,"paired_1_11_2.csv",NA,NA,6
0.5,0.1,"down","periphFirst",0,15,15,21,0.000326300000779156,0.000326300000779156,109.804849,111.3060939,111.3060939,111.3060939,111.3060939,111.6066443,111.6066443,111.6066443,9,3,"[0.03272909999941476, 0.21667040000011184, 0.2667002999996839]","[0.13324120000015682, 0.23337199999969016, 0.30011279999962426]",111.6066443,111.9068514,111.9068514,111.9068514,3,2,"[0.0007545999997091712, 0.28360410000004777]","[0.23325629999999364, 0.28360890000021755]",112.2072763,112.2072763,"up",0.94698070000004,0,113.1752351,113.1752351,"right",0.922537999999349,1,111.9068514,NA,NA,NA,NA,NA,1,11,"2025-09-29_15h42.36.454","paired","2022.2.4",60.0215237183115,"paired_1_11_2.csv",NA,NA,6
0.5,0,"up","centerFirst",0,16,16,18,0.000645099999928789,0.000645099999928789,114.125961700001,115.6273764,115.6273764,115.6273764,115.6273764,115.9277441,115.9277441,115.9277441,5,4,"[0.0007932999997137813, 0.08318640000015876, 0.18347499999981665, 0.23351840000032098]","[0.049663699999655364, 0.16634460000022955, 0.19981639999969047, 0.30011170000034326]",115.9277441,116.227867000001,116.227867000001,116.227867000001,16,2,"[0.18363380000027973, 0.2837466000000859]","[0.2003191000003426, 0.2837515999999596]",116.5283066,116.5283066,"down",3.73717749999969,0,120.282189,120.282189,"right",0.303335899999638,0,NA,NA,NA,NA,NA,NA,1,11,"2025-09-29_15h42.36.454","paired","2022.2.4",60.0215237183115,"paired_1_11_2.csv",NA,NA,6
0.2,0.65,"down","centerFirst",0,17,17,11,0.000329799999235547,0.000329799999235547,120.6156748,122.1171871,122.1171871,122.1171871,122.1171871,122.4174675,122.4174675,122.4174675,16,2,"[0.033031799999662326, 0.20001899999988382]","[0.06652669999948557, 0.21671789999982138]",122.4174675,122.7174723,122.7174723,122.7174723,12,3,"[0.1503671000000395, 0.2505141999999978, 0.2838742000003549]","[0.21683190000021568, 0.2672389999997904, 0.28387860000020737]",123.0181267,123.0181267,"down",0.406638599999951,1,123.4520571,123.4520571,"right",0.30994629999941,0,122.7174723,NA,NA,NA,NA,NA,1,11,"2025-09-29_15h42.36.454","paired","2022.2.4",60.0215237183115,"paired_1_11_2.csv",NA,NA,6
0.2,0,"down","centerFirst",0,18,18,1,0.000321600000461331,0.000321600000461331,123.7855267,125.2870638,125.2870638,125.2870638,125.2870638,125.5871807,125.5871807,125.5871807,6,2,"[0.0661787999997614, 0.2164932999994562]","[0.18276559999958408, 0.29993179999928543]",125.5871807,125.887541300001,125.887541300001,125.887541300001,7,6,"[0.0008264999996754341, 0.04989490000025398, 0.13337130000036268, 0.1833662999997614, 0.21669790000032663, 0.2835039000001416]","[0.016183100000489503, 0.11619620000055875, 0.16670350000003964, 0.19975299999987328, 0.2496424000000843, 0.2835093000003326]",126.1880653,126.1880653,"down",1.02037209999935,1,127.2391567,127.2391567,"right",0.217386399999214,0,125.887541300001,NA,NA,NA,NA,NA,1,11,"2025-09-29_15h42.36.454","paired","2022.2.4",60.0215237183115,"paired_1_11_2.csv",NA,NA,6
0.8,0.35,"up","centerFirst",0,19,19,42,0.000336899999638263,0.000336899999638263,127.4892128,128.990622,128.990622,128.990622,128.990622,129.290890400001,129.290890400001,129.290890400001,13,5,"[0.03332460000001447, 0.08346400000027643, 0.13359029999992345, 0.16681330000028538, 0.26679169999988517]","[0.05004559999997582, 0.1166800000000876, 0.1502176000003601, 0.18327080000017304, 0.28345790000003035]",129.290890400001,129.5912179,129.5912179,129.5912179,7,6,"[0.001010800000585732, 0.09995650000018941, 0.15044790000047215, 0.18391950000022916, 0.23389640000004874, 0.26750410000022384]","[0.08364900000015041, 0.1335997000005591, 0.16712400000051275, 0.20031230000040523, 0.25039680000008957, 0.28372380000018893]",129.8917428,129.8917428,"up",0.436744099999942,1,130.3588839,130.3588839,"left",0.290799999999308,1,NA,NA,NA,NA,NA,NA,1,11,"2025-09-29_15h42.36.454","paired","2022.2.4",60.0215237183115,"paired_1_11_2.csv",NA,NA,6
0.5,0.1,"up","centerFirst",0,20,20,20,0.000340100000357779,0.000340100000357779,130.6756689,132.1771217,132.1771217,132.1771217,132.1771217,132.477365700001,132.477365700001,132.477365700001,13,2,"[0.08335470000019995, 0.1834614999997939]","[0.15002999999978783, 0.21651910000036878]",132.477365700001,132.7776026,132.7776026,132.7776026,15,2,"[0.04949949999991077, 0.2336035999996966]","[0.0834554000002754, 0.2499247000005198]",133.0782108,133.0782108,"down",0.587514499999543,0,133.695757,133.695757,"left",0.249147299999549,1,132.7776026,NA,NA,NA,NA,NA,1,11,"2025-09-29_15h42.36.454","paired","2022.2.4",60.0215237183115,"paired_1_11_2.csv",NA,NA,6
0.8,0.9,"up","periphFirst",0,21,21,50,0.00113099999998667,0.00113099999998667,133.9624911,135.4638993,135.4638993,135.4638993,135.4638993,135.7641678,135.7641678,135.7641678,7,4,"[0.0009205000005749753, 0.11658230000011827, 0.18297530000018014, 0.2663281000004645]","[0.06617400000050111, 0.14958180000030552, 0.2495496000001367, 0.29987900000014633]",135.7641678,136.0644128,136.0644128,136.0644128,8,3,"[0.03311810000013793, 0.1332654999996521, 0.24999969999953464]","[0.0667366999996375, 0.21664939999936905, 0.28356110000004264]",136.3649205,136.3649205,"up",0.932339199999205,1,137.31594,137.31594,"left",0.309702000000016,0,136.0644128,NA,NA,NA,NA,NA,1,11,"2025-09-29_15h42.36.454","paired","2022.2.4",60.0215237183115,"paired_1_11_2.csv",NA,NA,6
0.8,0.35,"down","periphFirst",0,22,22,43,0.000326100000165752,0.000326100000165752,137.6494027,139.1509389,139.1509389,139.1509389,139.1509389,139.4513159,139.4513159,139.4513159,17,1,"[0.2834484999993947]","[0.3002809999998135]",139.4513159,139.7516373,139.7516373,139.7516373,5,3,"[0.001934599999913189, 0.04834070000015345, 0.19859790000009525]","[0.032543499999519554, 0.1816313999997874, 0.2820227000001978]",140.0519007,140.0519007,"up",1.01379409999981,0,141.0862584,141.0862584,"right",0.706219799999872,1,139.7516373,140.0519007,140.0519007,140.0519007,NA,NA,1,11,"2025-09-29_15h42.36.454","paired","2022.2.4",60.0215237183115,"paired_1_11_2.csv",NA,NA,6
0.8,1,"down","periphFirst",0,23,23,53,0.000337700000272889,0.000337700000272889,141.8202134,143.3216108,143.3216108,143.3216108,143.3216108,143.6220312,143.6220312,143.6220312,12,3,"[0.000755399999434303, 0.03322969999953784, 0.0997942999993029]","[0.016163199999937206, 0.0666120999994746, 0.1664941999997609]",143.6220312,143.922075,143.922075,143.922075,12,3,"[0.04949849999957223, 0.2002136999999493, 0.26693819999945845]","[0.06594570000015665, 0.2502989999993588, 0.2837599999993472]",144.2227614,144.2227614,"down",0.946713599999839,1,145.1904752,145.1904752,"right",0.274196999999276,1,143.922075,NA,NA,NA,NA,NA,1,11,"2025-09-29_15h42.36.454","paired","2022.2.4",60.0215237183115,"paired_1_11_2.csv",NA,NA,6
0.2,0.2,"down","periphFirst",0,24,24,5,0.000352400000338093,0.000352400000338093,145.4905745,146.9920377,146.9920377,146.9920377,146.9920377,147.2923082,147.2923082,147.2923082,8,3,"[0.03310299999975541, 0.14988799999991897, 0.19983419999971375]","[0.1161376999998538, 0.1664178000000902, 0.2828185999997004]",147.2923082,147.5926568,147.5926568,147.5926568,0,1,"[0.0007641999991392368]","[0.2834837999998854]",147.8931083,147.8931083,"down",1.49948629999972,1,149.4112396,149.4112396,"right",0.422773800000414,1,147.5926568,NA,NA,NA,NA,NA,1,11,"2025-09-29_15h42.36.454","paired","2022.2.4",60.0215237183115,"paired_1_11_2.csv",NA,NA,6
0.8,0.8,"down","centerFirst",0,25,25,49,0.000321999999869149,0.000321999999869149,149.8615252,151.362996,151.362996,151.362996,151.362996,151.6633591,151.6633591,151.6633591,19,0,"","",151.6633591,151.9637328,151.9637328,151.9637328,16,1,"[0.1664946000000782]","[0.199899600000208]",152.264160700001,152.264160700001,"up",0.504975099999228,0,152.7981316,152.7981316,"left",0.266479599999457,1,151.9637328,NA,NA,NA,NA,NA,1,11,"2025-09-29_15h42.36.454","paired","2022.2.4",60.0215237183115,"paired_1_11_2.csv",NA,NA,6
0.5,0.35,"down","centerFirst",0,26,26,25,0.000334500000462867,0.000334500000462867,153.0815112,154.5829186,154.5829186,154.5829186,154.5829186,154.8833155,154.8833155,154.8833155,18,1,"[0.0008124000005409471]","[0.016621600000689796]",154.8833155,155.1834734,155.1834734,155.1834734,18,0,"","",155.4839731,155.4839731,"down",0.468471799999406,1,155.9846442,155.9846442,"left",0.304030899999361,1,NA,NA,NA,NA,NA,NA,1,11,"2025-09-29_15h42.36.454","paired","2022.2.4",60.0215237183115,"paired_1_11_2.csv",NA,NA,6
0.2,0.8,"down","periphFirst",0,27,27,13,0.000205899999855319,0.000205899999855319,156.3177692,157.8196334,157.8196334,157.8196334,157.8196334,158.1195448,158.1195448,158.1195448,9,5,"[0.0007554000003437977, 0.06648070000028383, 0.11664650000057009, 0.23341239999990648, 0.26681060000009893]","[0.03298400000039692, 0.09954040000047826, 0.16642810000030295, 0.24968119999994087, 0.2996392000004562]",158.1195448,158.4199032,158.4199032,158.4199032,3,3,"[0.0007894999998825369, 0.08320219999950496, 0.25040029999945546]","[0.06621549999999843, 0.23342199999933655, 0.283352699999341]",158.72061,158.72061,"down",2.37711330000047,1,161.1230867,161.1230867,"right",0.206732999999531,1,158.4199032,NA,NA,NA,NA,NA,1,11,"2025-09-29_15h42.36.454","paired","2022.2.4",60.0215237183115,"paired_1_11_2.csv",NA,NA,6
0.2,0.1,"down","periphFirst",0,28,28,3,0.000337400000717025,0.000337400000717025,161.3564737,162.8579755,162.8579755,162.8579755,162.8579755,163.1584876,163.1584876,163.1584876,7,5,"[0.0008247999994637212, 0.11659489999965444, 0.19934959999955026, 0.23325320000003558, 0.3001550999997562]","[0.04963709999992716, 0.18256519999977172, 0.2161043999994945, 0.28341589999945427, 0.300159899999926]",163.1584876,163.4584514,163.4584514,163.4584514,0,1,"[0.0008637000000817352]","[0.2840137000002869]",163.7589357,163.7589357,"down",0.890049999999519,1,164.6765764,164.6765764,"right",0.309404099999028,1,NA,NA,NA,NA,NA,NA,1,11,"2025-09-29_15h42.36.454","paired","2022.2.4",60.0215237183115,"paired_1_11_2.csv",NA,NA,6
0.5,0.8,"down","centerFirst",0,29,29,31,0.000336600000082399,0.000336600000082399,165.0101317,166.5115265,166.5115265,166.5115265,166.5115265,166.8118811,166.8118811,166.8118811,4,3,"[0.0007522999994762358, 0.06669210000018211, 0.23330040000018926]","[0.032971799999359064, 0.21612370000002556, 0.3002854999995179]",166.8118811,167.1122163,167.1122163,167.1122163,4,3,"[0.0009091999991142075, 0.08358299999963492, 0.28379389999918203]","[0.04988619999949151, 0.2500645000000077, 0.28379879999920377]",167.412651,167.412651,"down",0.748957700000119,1,168.1799663,168.1799663,"right",0.508675599999606,0,NA,NA,NA,NA,NA,NA,1,11,"2025-09-29_15h42.36.454","paired","2022.2.4",60.0215237183115,"paired_1_11_2.csv",NA,NA,6
0.2,0.8,"up","periphFirst",0,30,30,12,0.000340800000230956,0.000340800000230956,168.7138348,170.2154781,170.2154781,170.2154781,170.2154781,170.5155952,170.5155952,170.5155952,7,4,"[0.0027030999999624328, 0.08183519999965938, 0.11556029999974271, 0.2974512999999206]","[0.03142059999936464, 0.0982596999992893, 0.26401799999985087, 0.2974562999997943]",170.5155952,170.8156909,170.8156909,170.8156909,6,5,"[0.000776199999563687, 0.05031379999945784, 0.10000949999994191, 0.20050959999935003, 0.28389729999980773]","[0.016404299999521754, 0.08332439999958297, 0.18371699999988778, 0.25025389999973413, 0.300634700000046]",171.1162387,171.1162387,"up",0.644806100000551,1,171.7837462,171.7837462,"left",0.968907299999501,0,170.8156909,171.1162387,171.1162387,171.1162387,NA,NA,1,11,"2025-09-29_15h42.36.454","paired","2022.2.4",60.0215237183115,"paired_1_11_2.csv",NA,NA,6
0.5,0.5,"down","periphFirst",0,31,31,27,0.000335499999891908,0.000335499999891908,172.7844401,174.2863667,174.2863667,174.2863667,174.2863667,174.5864928,174.5864928,174.5864928,19,0,"","",174.5864928,174.8868178,174.8868178,174.8868178,18,1,"[0.016728800000237243]","[0.03318870000020979]",175.187123,175.187123,"up",1.86140230000046,0,177.0724255,177.0724255,"left",0.36045090000016,0,174.8868178,175.187123,175.187123,175.187123,NA,NA,1,11,"2025-09-29_15h42.36.454","paired","2022.2.4",60.0215237183115,"paired_1_11_2.csv",NA,NA,6
0.5,0.35,"up","centerFirst",0,32,32,24,0.0011463000000731,0.0011463000000731,177.4560701,178.9573329,178.9573329,178.9573329,178.9573329,179.2575704,179.2575704,179.2575704,4,4,"[0.0008144000003085239, 0.19963129999996454, 0.23317649999989953, 0.2834909000002881]","[0.1827712000003885, 0.216221200000291, 0.266337800000656, 0.2996044000001348]",179.2575704,179.5579375,179.5579375,179.5579375,5,5,"[0.0009141000000454369, 0.03350829999999405, 0.13362909999978, 0.16715250000015658, 0.20026700000016717]","[0.01660939999965194, 0.11660930000016378, 0.15001260000008187, 0.18327529999987746, 0.28360520000023826]",179.858467900001,179.858467900001,"down",0.406879700000445,0,180.2922506,180.2922506,"left",0.501220199999352,1,NA,NA,NA,NA,NA,NA,1,11,"2025-09-29_15h42.36.454","paired","2022.2.4",60.0215237183115,"paired_1_11_2.csv",NA,NA,6
0.5,0.9,"down","periphFirst",0,33,33,33,0.000322599999890372,0.000322599999890372,180.8257514,182.3274795,182.3274795,182.3274795,182.3274795,182.6275352,182.6275352,182.6275352,11,2,"[0.09991739999986748, 0.26655209999989893]","[0.1831328999996913, 0.2998464000002059]",182.6275352,182.9279243,182.9279243,182.9279243,5,3,"[0.03337599999940721, 0.08329249999951571, 0.1835375999999087]","[0.06653740000001562, 0.14981339999940246, 0.28309449999960634]",183.228214,183.228214,"down",2.69299229999933,1,185.9478831,185.9478831,"right",0.277777299999343,1,182.9279243,NA,NA,NA,NA,NA,1,11,"2025-09-29_15h42.36.454","paired","2022.2.4",60.0215237183115,"paired_1_11_2.csv",NA,NA,6
0.5,0.9,"up","centerFirst",0,34,34,32,0.000324499999805994,0.000324499999805994,186.2479013,187.7495593,187.7495593,187.7495593,187.7495593,188.0497754,188.0497754,188.0497754,2,2,"[0.000755600000047707, 0.09989190000032977]","[0.06623829999989539, 0.30023869999968156]",188.0497754,188.3501675,188.3501675,188.3501675,6,4,"[0.000951099999838334, 0.13374479999947653, 0.18306599999959872, 0.23315589999947406]","[0.11679969999931927, 0.16678929999943648, 0.19950710000011895, 0.26670179999928223]",188.6505096,188.6505096,"up",0.871237099999689,1,189.551376500001,189.551376500001,"right",0.305358000000069,0,NA,NA,NA,NA,NA,NA,1,11,"2025-09-29_15h42.36.454","paired","2022.2.4",60.0215237183115,"paired_1_11_2.csv",NA,NA,6
